Acc X       , Acc Y       , Acc Z       , Gyro X      , Gyro Y      , Gyro Z      , Euler X     , Euler Y     , Euler Z     , Pres X      , Pres Y      , Pres Z      , Time        , Status      , LowRate X   , LowRate Y   , LowRate Z    
-0.142171428, 9.786868    , 0.119428642 , 0           , 0           , 0           , -1.58299863 , -0.0145246508, 0           , 918.5449    , 30.0597477  , 820.136353  , 0           , 2           , 0           , 5.473232    , 0
-0.136210918, 9.794357    , 0.127004981 , 0.000170328014, 0.000203357369, 7.076707E-05, -1.58299673 , -0.0145242261, -2.0421403E-06, 918.5449    , 30.0597477  , 820.136353  , 0.01        , 3           , 1           , 0           , 0
-0.136602744, 9.792392    , 0.133598059 , 0.00026298195, 0.00038565  , -0.000173968525, -1.5829941  , -0.0145260142, -5.87726572E-06, 918.5449    , 30.0597477  , 820.136353  , 0.02        , 3           , 2           , 0           , 0
-0.139162779, 9.793033    , 0.128235966 , -0.0003392051, -0.000227414741, 0.00027418902, -1.58299744 , -0.0145232435, -3.63719869E-06, 918.493042  , 29.6306477  , 820.136353  , 0.03        , 3           , 3           , 0           , 0
-0.142326623, 9.789617    , 0.1335881   , -0.000178799644, -8.677176E-05, 0.000344394182, -1.58299935 , -0.01451979 , -2.811028E-06, 918.493042  , 29.6306477  , 820.136353  , 0.04        , 3           , 4           , 0           , 0
-0.146215811, 9.785248    , 0.123555183 , 0.000179001654, -0.0006656927, 0.000303137844, -1.58299756 , -0.0145166768, 3.80811412E-06, 918.493042  , 29.6306477  , 820.136353  , 0.05        , 3           , 5           , 0           , 0
-0.142856672, 9.806883    , 0.125170946 , -0.000383443636, 0.000118878 , 0.000267483643, -1.58300138 , -0.0145140169, 2.58748673E-06, 918.493042  , 29.6306477  , 820.136353  , 0.06        , 3           , 6           , 0           , 0
-0.141233265, 9.792793    , 0.117742538 , 0.000292061421, -0.0001849795, 0.0005311873, -1.58299851 , -0.0145086832, 4.37255449E-06, 918.493042  , 29.6306477  , 820.136353  , 0.07        , 3           , 7           , 0           , 0
-0.144840568, 9.793292    , 0.117306687 , 0.000147430663, -0.000230263249, 0.0004493281, -1.582997   , -0.0145041645, 6.618674E-06, 918.493042  , 29.6306477  , 820.136353  , 0.08        , 3           , 8           , 5           , 5
-0.141323492, 9.790037    , 0.110825    , -0.0003897809, -3.49704351E-05, 0.0002837659, -1.5830009  , -0.0145013221, 6.933494E-06, 918.493042  , 29.6306477  , 820.136353  , 0.09        , 3           , 9           , 5           , 0.1
-0.141841888, 9.793177    , 0.112207793 , 0.000135753391, 5.617179E-05, -0.000166475365, -1.58299959 , -0.0145029947, 6.39280461E-06, 918.493042  , 29.6306477  , 820.136353  , 0.1         , 3           , 10          , 0.1         , 0.1
-0.13577497 , 9.789441    , 0.114507422 , 0.00024175983, 0.000229033787, -0.000473891181, -1.58301079 , -0.0145040583, 4.357651E-06, 918.493042  , 29.6306477  , 820.6042    , 0.11        , 3           , 11          , 0.0109544508, 0.0109544508
-0.142259285, 9.792615    , 0.131271541 , 0.000708117848, -0.0001836048, -4.13926173E-05, -1.58300364 , -0.0145044494, 6.198604E-06, 918.493042  , 29.6306477  , 820.6042    , 0.12        , 3           , 12          , 0.174642488 , 0
-0.1370622  , 9.789205    , 0.120102979 , 0.000364225 , -0.000515889842, 0.0002035015, -1.58300006 , -0.0145023521, 1.13325932E-05, 918.5154    , 29.67176    , 820.6042    , 0.13        , 3           , 13          , 0           , 0
-0.142759159, 9.791605    , 0.124377236 , -0.000391533365, 0.000116876938, 8.537226E-05, -1.583004   , -0.0145015121, 1.01529495E-05, 918.5154    , 29.67176    , 820.6042    , 0.14        , 3           , 14          , 0.0001489313, -0.00046060668
-0.1453573  , 9.796339    , 0.1268834   , -0.000122648475, 0.0001407479, -0.000631668954, -1.58300507 , -0.0145078432, 8.821951E-06, 918.5154    , 29.67176    , 820.6042    , 0.15        , 3           , 15          , 0           , -8.752986E-05
-0.13861306 , 9.797647    , 0.125828668 , 4.554326E-05, 0.000564127346, -0.00044120333, -1.58300459 , -0.0145123247, 3.234824E-06, 918.5154    , 29.67176    , 820.6042    , 0.16        , 3           , 16          , 0           , 1.401298E-45
-0.141190544, 9.798643    , 0.128531411 , -0.000716880837, 0.000341502164, -0.0010554099, -1.58301175 , -0.0145229194, -5.07624343E-08, 918.5154    , 29.67176    , 820.6042    , 0.17        , 3           , 20          , 0           , 0
-0.138113469, 9.811099    , 0.119705044 , -0.000236860782, 0.000139320939, -0.000750419335, -1.58301413 , -0.014530438, -1.3524234E-06, 918.5154    , 29.67176    , 820.604248  , 0.18        , 3           , 21          , 0           , 0
-0.147177413, 9.798491    , 0.127858609 , 0.000182782285, 0.000123539619, -0.000130752829, -1.58301222 , -0.0145317605, -2.57165357E-06, 918.5154    , 29.67176    , 820.6043    , 0.19        , 3           , 22          , 0           , 0
-0.14404279 , 9.790156    , 0.123689972 , -0.00027547538, -0.000162851327, -5.55180741E-05, -1.583015   , -0.0145322988, -9.36543643E-07, 918.5154    , 29.67176    , 820.6044    , 0.2         , 3           , 40          , 0           , 0
-0.13736245 , 9.786682    , 0.126044363 , -2.17047636E-05, -6.6597946E-05, 6.93696347E-06, -1.58303046 , -0.0145293558, -4.84338862E-08, 918.5154    , 29.67176    , 820.503845  , 0.21        , 3           , 41          , 0           , 0
-0.129361168, 9.791323    , 0.115238473 , 0.000336521916, 0.000153496134, 0.000303025 , -1.58302712 , -0.0145263448, -1.62067238E-06, 918.5154    , 29.67176    , 820.5039    , 0.22        , 3           , 42          , 0           , 0
-0.134862185, 9.784611    , 0.122001767 , -0.000400280784, 6.32827869E-06, 0.000555525068, -1.58303118 , -0.01452079 , -1.75153684E-06, 918.536438  , 29.69469    , 820.503967  , 0.23        , 3           , 255         , 0           , 0
-0.1471524  , 9.795117    , 0.114826426 , -0.000469261664, -0.0002642395, 0.000387323031, -1.58303583 , -0.0145168854, 8.434015E-07, 918.536438  , 29.69469    , 820.504     , 0.24        , 3           , 255         , 0           , 0
-0.1472609  , 9.790283    , 0.115206882 , -0.00023364088, -0.000515946071, -0.000773777138, -1.58303821 , -0.0145245595, 6.09801236E-06, 918.536438  , 29.69469    , 820.5041    , 0.25        , 3           , 255         , 0           , 0
-0.147561163, 9.785698    , 0.120790944 , 0.000110138615, -0.0003645178, -0.0006334945, -1.58303714 , -0.0145308478, 9.819505E-06, 918.536438  , 29.69469    , 820.50415   , 0.26        , 3           , 255         , 0           , 0
-0.141081616, 9.792493    , 0.118874952 , -0.00032567358, -3.36878E-05, 0.000326445064, -1.58304036 , -0.01452758 , 1.01170936E-05, 918.536438  , 29.69469    , 820.5042    , 0.27        , 3           , 255         , 0           , 0
-0.132636279, 9.787627    , 0.120646037 , 0.0002384666, -3.4487166E-06, -0.00019591453, -1.583038   , -0.0145295383, 1.01757732E-05, 918.536438  , 29.69469    , 820.5043    , 0.28        , 3           , 255         , 0           , 0
-0.151428863, 9.798833    , 0.122481562 , 0.0008589295, 0.000183090771, -0.000236271182, -1.58302939 , -0.0145319253, 8.373939E-06, 918.536438  , 29.69469    , 820.504333  , 0.29        , 3           , 255         , 0           , 0
-0.148004979, 9.792608    , 0.122906014 , 0.000186735415, 0.000102395075, -0.000196945271, -1.5830276  , -0.0145339072, 7.37359369E-06, 918.536438  , 29.69469    , 820.5044    , 0.3         , 3           , 255         , 0           , 0
-0.145104468, 9.79247952  , 0.123214342 , -0.0005859703, -0.000179193914, -0.000708707841, -1.58303368 , -0.0145386355, 9.255065E-06, 918.536438  , 29.69469    , 820.4068    , 0.31        , 3           , 255         , 0           , 0
-0.143754467, 9.790926    , 0.120141909 , -0.0003166599, 0.000294665748, -0.000459169067, -1.58303678 , -0.0145432623, 6.36439972E-06, 918.536438  , 29.69469    , 820.40686   , 0.32        , 3           , 255         , 0           , 0
-0.1378486  , 9.790565    , 0.118026733 , -0.000146267, 2.89445452E-05, 0.0002302604, -1.58303833 , -0.0145409638, 6.0477164E-06, 918.5381    , 29.7117863  , 820.4069    , 0.33        , 3           , 255         , 0           , 0
-0.143284574, 9.797893    , 0.130987763 , 0.0005971228, 7.990611E-05, -0.000225522846, -1.58303225 , -0.014543226, 5.276035E-06, 918.5381    , 29.7117863  , 820.407     , 0.34        , 3           , 255         , 0           , 0
-0.140954345, 9.795078    , 0.118173935 , 3.30742478E-05, -4.77627036E-05, -0.000389553345, -1.583032   , -0.0145471171, 5.800891E-06, 918.5381    , 29.7117863  , 820.407043  , 0.35        , 3           , 255         , 0           , 0
-0.143634468, 9.791363    , 0.116129063 , 0.000866203045, 7.082996E-05, -0.0006374973, -1.58302331 , -0.0145535  , 5.170785E-06, 918.5381    , 29.7117863  , 820.4071    , 0.36        , 3           , 255         , 0           , 0
-0.144469455, 9.792808    , 0.10944508  , 6.54412E-05 , 0.0005252389, 0.00022749044, -1.58302259 , -0.01455129 , -1.09441984E-07, 918.5381    , 29.7117863  , 820.407166  , 0.37        , 3           , 255         , 0           , 0
-0.148026615, 9.789915    , 0.113684416 , -0.000189944316, 0.000215187232, 0.000413745467, -1.58302438 , -0.0145471795, -2.31225317E-06, 918.5381    , 29.7117863  , 820.4072    , 0.38        , 3           , 255         , 0           , 0
-0.15085952 , 9.799727    , 0.1123183   , -0.000264268485, 0.0001207281, 0.0002591568, -1.58302712 , -0.0145446025, -3.551043E-06, 918.5381    , 29.7117863  , 820.4073    , 0.39        , 3           , 255         , 0           , 0
-0.149836019, 9.796812    , 0.112291113 , 4.09581844E-05, 0.000242660826, 0.000239592046, -1.58302677 , -0.0145422351, -6.00580324E-06, 918.5381    , 29.7117863  , 820.407349  , 0.4         , 3           , 255         , 0           , 0
-0.139196932, 9.789366    , 0.121297836 , 5.153939E-06, -0.000174638291, -0.000311741838, -1.58301854 , -0.0145531334, -4.33995729E-06, 918.5381    , 29.7117863  , 820.354248  , 0.41        , 3           , 255         , 0           , 0
-0.150954649, 9.808596    , 0.120493874 , 0.0005518252, -0.000223867886, 0.000144378442, -1.583013   , -0.0145516647, -2.119449E-06, 918.5381    , 29.7117863  , 820.3543    , 0.42        , 3           , 255         , 0           , 0
-0.15710862 , 9.786725    , 0.123678461 , 0.0005868979, -4.42645978E-05, 0.000118715325, -1.5830071  , -0.0145504717, -1.69146085E-06, 918.565063  , 29.7224388  , 820.3544    , 0.43        , 3           , 255         , 0           , 0
-0.149708062, 9.798063    , 0.1266935   , -0.00034289906, -0.000115178176, -0.000238698209, -1.58301055 , -0.0145528447, -5.113502E-07, 918.565063  , 29.7224388  , 820.354431  , 0.44        , 3           , 255         , 0           , 0
-0.146321341, 9.785484    , 0.126027182 , -0.000346593617, 0.000473379 , -0.00112013076, -1.583014   , -0.0145641034, -5.107449E-06, 918.565063  , 29.7224388  , 820.3545    , 0.45        , 3           , 255         , 0           , 0
-0.139212891, 9.7919445   , 0.11528305  , -0.0006603521, -0.0001507366, 7.491489E-05, -1.58302057 , -0.0145633332, -3.61065531E-06, 918.565063  , 29.7224388  , 820.354553  , 0.46        , 3           , 255         , 0           , 0
-0.137362763, 9.795637    , 0.127475053 , -0.00043002225, -0.000303746259, 0.000571122044, -1.58302486 , -0.014557587, -6.431464E-07, 918.565063  , 29.7224388  , 820.3546    , 0.47        , 3           , 255         , 0           , 0
-0.146496564, 9.789841    , 0.131090611 , -5.057853E-06, -0.0003093051, 0.000505063334, -1.58302486 , -0.0145524992, 2.3872326E-06, 918.565063  , 29.7224388  , 820.3547    , 0.48        , 3           , 255         , 0           , 0
-0.142172262, 9.7946825   , 0.129231721 , -0.000150867476, -0.0003836021, -0.000287139846, -1.58302653 , -0.0145553239, 6.25868552E-06, 918.565063  , 29.7224388  , 820.354736  , 0.49        , 3           , 255         , 0           , 0
-0.14301464 , 9.785452    , 0.125238419 , -0.000510598358, -0.0005423963, -0.000233579893, -1.58303154 , -0.0145575935, 1.17112259E-05, 918.565063  , 29.7224388  , 820.3548    , 0.5         , 3           , 255         , 0           , 0
-0.142915025, 9.782791    , 0.135006145 , 0.000122580255, -0.000489927945, 8.90059E-05 , -1.583048   , -0.0145656532, 1.68564E-05 , 918.565063  , 29.7224388  , 820.272644  , 0.51        , 3           , 255         , 0           , 0
-0.138981119, 9.786369    , 0.132904068 , 0.000208681464, -0.000187110825, 0.000300548272, -1.583046   , -0.0145626282, 1.8690831E-05, 918.565063  , 29.7224388  , 820.2727    , 0.52        , 3           , 255         , 0           , 0
-0.137307122, 9.788002    , 0.126102686 , -0.000323646615, 0.000663980667, 0.000112659567, -1.58304918 , -0.0145615833, 1.20367567E-05, 918.5253    , 29.7299     , 820.272766  , 0.53        , 3           , 255         , 0           , 0
-0.13528803 , 9.797911    , 0.117459513 , -0.00041632558, -4.29958163E-05, -0.000465188641, -1.58305335 , -0.0145662278, 1.2523893E-05, 918.5253    , 29.7299     , 820.2728    , 0.54        , 3           , 255         , 0           , 0
-0.137438267, 9.797609    , 0.127349257 , -0.000492638, -0.000278885971, -0.0005056964, -1.58305836 , -0.0145712513, 1.53745077E-05, 918.5253    , 29.7299     , 820.2729    , 0.55        , 3           , 255         , 0           , 0
-0.13842544 , 9.794039    , 0.118388414 , 9.108319E-05, 0.000164653524, -0.0003917995, -1.5830574  , -0.0145751862, 1.3775727E-05, 918.5253    , 29.7299     , 820.272949  , 0.56        , 3           , 255         , 0           , 0
-0.139336944, 9.792592    , 0.125374064 , 0.0004474328, 5.08459343E-05, 2.23169191E-05, -1.583053   , -0.0145749692, 1.32653058E-05, 918.5253    , 29.7299     , 820.273     , 0.57        , 3           , 255         , 0           , 0
-0.140595689, 9.792138    , 0.119894944 , -0.000177899812, 0.000257463544, 7.64574943E-05, -1.58305478 , -0.014574239, 1.068061E-05, 918.5253    , 29.7299     , 820.2731    , 0.58        , 3           , 255         , 0           , 0
-0.141043544, 9.797008    , 0.120017648 , -0.0004288627, 0.00013277962, 0.000191997184, -1.583059   , -0.0145723354, 9.33005E-06 , 918.5253    , 29.7299     , 820.273132  , 0.59        , 3           , 255         , 0           , 0
-0.138515025, 9.781457    , 0.117563583 , 9.595441E-05, -0.000219725334, -0.000403234037, -1.583058   , -0.01457634 , 1.15761732E-05, 918.5253    , 29.7299     , 820.2732    , 0.6         , 3           , 255         , 0           , 0
-0.13958174 , 9.78257751  , 0.114837214 , 0.000237685788, -0.000379823963, -0.000346119778, -1.58307087 , -0.0145655507, 1.56376336E-05, 918.5253    , 29.7299     , 820.2804    , 0.61        , 3           , 255         , 0           , 0
-0.1401191  , 9.795545    , 0.117764033 , -0.000309134164, -0.0001462787, 0.000113770358, -1.58307385 , -0.014564395, 1.70859948E-05, 918.5253    , 29.7299     , 820.280457  , 0.62        , 3           , 255         , 0           , 0
-0.145641536, 9.780178    , 0.121889547 , 2.99979874E-05, 0.000189508457, 0.000312762568, -1.58307362 , -0.0145612909, 1.51528284E-05, 918.5543    , 29.7368889  , 820.2805    , 0.63        , 3           , 255         , 0           , 0
-0.146571189, 9.794205    , 0.124206379 , 0.000143813857, -5.240651E-05, 0.000456501934, -1.58307207 , -0.01455672 , 1.56208662E-05, 918.5543    , 29.7368889  , 820.2806    , 0.64        , 3           , 255         , 0           , 0
-0.154414371, 9.797837    , 0.117674567 , 9.742119E-05, -2.55879713E-05, -0.000476272835, -1.58307111 , -0.014561479, 1.5934289E-05, 918.5543    , 29.7368889  , 820.2807    , 0.65        , 3           , 255         , 0           , 0
-0.147432014, 9.793023    , 0.129185736 , -0.000182184682, 8.27063341E-05, 0.0002080913, -1.5830729  , -0.0145594086, 1.50820388E-05, 918.5543    , 29.7368889  , 820.2808    , 0.66        , 3           , 255         , 0           , 0
-0.144539982, 9.793367    , 0.126150534 , -0.000201994029, 0.0002389604, -0.0006338442, -1.58307493 , -0.0145657742, 1.277072E-05, 918.5543    , 29.7368889  , 820.280945  , 0.67        , 3           , 255         , 0           , 0
-0.1381198  , 9.796915    , 0.129746452 , 0.000109666769, 2.094396E-05, 0.000201865128, -1.58307385 , -0.0145637589, 1.25364659E-05, 918.5543    , 29.7368889  , 820.281067  , 0.68        , 3           , 255         , 0           , 0
-0.140622541, 9.803464    , 0.126031548 , -0.0003322914, -0.00018068176, -0.000229973375, -1.58307719 , -0.0145660369, 1.43722982E-05, 918.5543    , 29.7368889  , 820.2812    , 0.69        , 3           , 255         , 0           , 0
-0.141858116, 9.789167    , 0.135053873 , -8.39026761E-05, 0.0002426392, -0.000138561067, -1.583078   , -0.0145674516, 1.196271E-05, 918.5543    , 29.7368889  , 820.2813    , 0.7         , 3           , 255         , 0           , 0
-0.144143969, 9.788439    , 0.12758863  , -0.000501683156, 0.0002582302, -1.16039228E-05, -1.58309627 , -0.0145718344, 9.574082E-06, 918.5543    , 29.7368889  , 820.246338  , 0.71        , 3           , 255         , 0           , 0
-0.142593384, 9.800399    , 0.132812142 , -0.0003350096, -0.000376605545, -0.000180352712, -1.58309972 , -0.0145735908, 1.33621725E-05, 918.5543    , 29.7368889  , 820.2464    , 0.72        , 3           , 255         , 0           , 0
-0.141580135, 9.785373    , 0.119010113 , -9.076997E-05, -0.000550765544, 0.000238524342, -1.58310056 , -0.0145711387, 1.883986E-05, 918.5681    , 29.74279    , 820.24646   , 0.73        , 3           , 255         , 0           , 0
-0.14675948 , 9.786944    , 0.1295059   , -0.0001326426, -0.000483600073, 0.000180064308, -1.58310187 , -0.0145692779, 2.3653447E-05, 918.5681    , 29.74279    , 820.2465    , 0.74        , 3           , 255         , 0           , 0
-0.145051211, 9.792409    , 0.122192122 , -0.000251789839, -0.0002534181, 1.524025E-05, -1.58310449 , -0.0145690944, 2.618598E-05, 918.5681    , 29.74279    , 820.2466    , 0.75        , 3           , 255         , 0           , 0
-0.139926165, 9.797136    , 0.120906994 , -0.000134674425, -0.000153721368, -0.0003267955, -1.5831058  , -0.0145723419, 2.7763348E-05, 918.5681    , 29.74279    , 820.246643  , 0.76        , 3           , 255         , 0           , 0
-0.133897617, 9.79788     , 0.123494722 , -0.000250171055, 0.000135635462, -0.000428333122, -1.58310831 , -0.0145766418, 2.646029E-05, 918.5681    , 29.74279    , 820.2467    , 0.77        , 3           , 255         , 0           , 0
-0.13968949 , 9.78733349  , 0.124713719 , -0.000391172769, -0.0003215674, -0.0005544403, -1.58311224 , -0.0145821469, 2.97435527E-05, 918.5681    , 29.74279    , 820.2468    , 0.78        , 3           , 255         , 0           , 0
-0.1457518  , 9.783725    , 0.123012021 , 5.24987845E-05, -0.000352566829, 4.3520824E-05, -1.58311176 , -0.0145816691, 3.32643249E-05, 918.5681    , 29.74279    , 820.246948  , 0.79        , 3           , 255         , 0           , 0
-0.141974226, 9.792532    , 0.126253858 , -0.000250670069, -0.0004518272, -4.81612733E-05, -1.58311439 , -0.0145820947, 3.77882425E-05, 918.5681    , 29.74279    , 820.2471    , 0.8         , 3           , 255         , 0           , 0
-0.146386176, 9.793203    , 0.123683572 , -0.00017214517, 0.000257980777, -0.000425393053, -1.58313167 , -0.0145844957, 3.5488094E-05, 918.5681    , 29.74279    , 820.203     , 0.81        , 3           , 255         , 0           , 0
-0.142950669, 9.789493    , 0.121734872 , 5.57707244E-05, -3.637545E-05, 0.000249310717, -1.58313119 , -0.0145819979, 3.582108E-05, 918.5681    , 29.74279    , 820.203064  , 0.82        , 3           , 255         , 0           , 0
-0.14761433 , 9.796213    , 0.123655722 , -0.000556404935, -0.000415652321, 0.0009781618, -1.5831368  , -0.0145721659, 3.98569246E-05, 918.5056    , 29.743536   , 820.2031    , 0.83        , 3           , 255         , 0           , 0
-0.1467388  , 9.7968235   , 0.11700289  , -0.000229593235, -0.000109466, 0.0004726777, -1.58313918 , -0.0145674245, 4.089313E-05, 918.5056    , 29.743536   , 820.2032    , 0.84        , 3           , 255         , 0           , 0
-0.155956879, 9.795978    , 0.11747019  , -0.000797968358, -0.000368949, -0.000273529644, -1.58314717 , -0.014570117, 4.461648E-05, 918.5056    , 29.743536   , 820.203247  , 0.85        , 3           , 255         , 0           , 0
-0.143242568, 9.799888    , 0.110701583 , -0.000821256952, -0.000107283035, -0.0001391973, -1.58315539 , -0.0145714954, 4.570625E-05, 918.5056    , 29.743536   , 820.2033    , 0.86        , 3           , 255         , 0           , 0
-0.139712915, 9.78496     , 0.122349106 , -0.0004692321, -0.000157755654, -0.0004997636, -1.58316016 , -0.0145764705, 4.73455548E-05, 918.5056    , 29.743536   , 820.203369  , 0.87        , 3           , 255         , 0           , 0
-0.140065119, 9.794174    , 0.124338649 , 8.409201E-05, 2.77570216E-05, -0.000385451, -1.58315921 , -0.0145803289, 4.71155E-05 , 918.5056    , 29.743536   , 820.2034    , 0.88        , 3           , 255         , 0           , 0
-0.139078587, 9.786722    , 0.123596087 , -0.0002136046, 0.0005094206, -4.627156E-05, -1.58316147 , -0.0145808551, 4.202807E-05, 918.5056    , 29.743536   , 820.2035    , 0.89        , 3           , 255         , 0           , 0
-0.130851984, 9.781721    , 0.119570211 , -0.000319731073, -1.34792353E-05, -0.000328236318, -1.58316457 , -0.0145841343, 4.22036464E-05, 918.5056    , 29.743536   , 820.203552  , 0.9         , 3           , 255         , 0           , 0
-0.139199317, 9.787827    , 0.120068327 , -0.000368084584, 0.000270525779, 0.000351910567, -1.58316672 , -0.01458253 , 3.943127E-05, 918.5056    , 29.743536   , 820.24054   , 0.91        , 3           , 255         , 0           , 0
-0.1451145  , 9.790516    , 0.11128144  , -0.000103668433, 0.00079783774, 0.0007683905, -1.58316767 , -0.014574945, 3.135817E-05, 918.5056    , 29.743536   , 820.240662  , 0.92        , 3           , 255         , 0           , 0
-0.142823324, 9.784701    , 0.119773641 , -7.33433E-05, -0.000231075712, -0.000467466336, -1.58316839 , -0.0145795913, 3.37263155E-05, 918.5378    , 29.7457752  , 820.2408    , 0.93        , 3           , 255         , 0           , 0
-0.137089163, 9.787821    , 0.124002136 , 0.000147932442, -0.0004125899, 0.000158729614, -1.58316684 , -0.0145779531, 3.783201E-05, 918.5378    , 29.7457752  , 820.2409    , 0.94        , 3           , 255         , 0           , 0
-0.137781739, 9.798471    , 0.123895884 , -0.000277740823, -0.00025904036, 0.0002073381, -1.5831697  , -0.0145758484, 4.03971462E-05, 918.5378    , 29.7457752  , 820.241     , 0.95        , 3           , 255         , 0           , 0
-0.14574194 , 9.805565    , 0.123261645 , -5.05215E-05, -5.43107453E-05, 0.000474864471, -1.58317018 , -0.014571093, 4.08810229E-05, 918.5378    , 29.7457752  , 820.24115   , 0.96        , 3           , 255         , 0           , 0
-0.151526332, 9.792688    , 0.127114266 , 0.000397595082, 0.000201251154, 9.56945951E-05, -1.58316612 , -0.0145701617, 3.88575027E-05, 918.5378    , 29.7457752  , 820.2413    , 0.97        , 3           , 255         , 0           , 0
-0.148150951, 9.791306    , 0.123795554 , 7.147588E-05, -0.0004443505, -0.000364729844, -1.58316553 , -0.0145737547, 4.334556E-05, 918.5378    , 29.7457752  , 820.2414    , 0.98        , 3           , 255         , 0           , 0
-0.144771844, 9.790178    , 0.122019567 , -0.000103686136, -0.000300612854, 6.247255E-05, -1.5831666  , -0.0145730926, 4.63438046E-05, 918.5378    , 29.7457752  , 820.2415    , 0.99        , 3           , 255         , 0           , 0
-0.1451622  , 9.78679848  , 0.128962755 , -0.000467214471, -3.9967912E-05, 9.47004155E-05, -1.58317137 , -0.01457214 , 4.673221E-05, 918.5378    , 29.7457752  , 820.241638  , 1           , 3           , 0           , 6.47323656  , 100
-0.133487418, 9.793086    , 0.123167895 , -8.128293E-05, 8.097594E-05, -0.000288024225, -1.58317626 , -0.0145781972, 4.60173469E-05, 918.5378    , 29.7457752  , 820.2368    , 1.01        , 3           , 1           , 0           , 0
-0.122647785, 9.791628    , 0.13162908  , 0.000237554239, -0.000523223833, 5.02056246E-05, -1.58317387 , -0.01457763 , 5.124309E-05, 918.5378    , 29.7457752  , 820.236938  , 1.02        , 3           , 2           , 0           , 0
-0.137189835, 9.801556    , 0.115725257 , 0.0006708649, -0.000432153, 5.44847862E-05, -1.5831672  , -0.0145770311, 5.555697E-05, 918.541748  , 29.7469959  , 820.237061  , 1.03        , 3           , 3           , 0           , 0
-0.137349755, 9.797164    , 0.117946245 , 0.00102871412, 0.000178098358, 0.0007502542, -1.58315682 , -0.0145695554, 5.36833977E-05, 918.541748  , 29.7469959  , 820.2372    , 1.04        , 3           , 4           , 0           , 0
-0.145267382, 9.789629    , 0.109440491 , 0.000121613921, 3.65965243E-05, 0.000530959631, -1.58315575 , -0.0145642487, 5.325216E-05, 918.541748  , 29.7469959  , 820.2373    , 1.05        , 3           , 5           , 0           , 0
-0.145188928, 9.787432    , 0.110717818 , 9.376815E-05, 0.000402467849, 0.0002747897, -1.58315456 , -0.0145615535, 4.9193015E-05, 918.541748  , 29.7469959  , 820.2374    , 1.06        , 3           , 6           , 0           , 0
-0.146743491, 9.799218    , 0.100470975 , -0.000260841276, 4.925119E-05, -0.000714162, -1.5831573  , -0.0145687  , 4.87887846E-05, 918.541748  , 29.7469959  , 820.237549  , 1.07        , 3           , 7           , 0           , 0
-0.147031039, 9.792149    , 0.103225574 , -0.000305335328, -3.40669067E-05, 2.36665146E-05, -1.58316028 , -0.0145684592, 4.91264254E-05, 918.541748  , 29.7469959  , 820.2377    , 1.08        , 3           , 8           , 5           , 5
-0.13094005 , 9.787378    , 0.107467487 , -0.0003350982, 4.3833832E-05, 0.000113356182, -1.58316362 , -0.0145673277, 4.86732933E-05, 918.541748  , 29.7469959  , 820.2378    , 1.09        , 3           , 9           , 5           , 0.1
-0.140544221, 9.785844    , 0.117057487 , -0.0006656887, -3.927987E-05, -0.00013873502, -1.58317029 , -0.0145687126, 4.90835773E-05, 918.541748  , 29.7469959  , 820.2379    , 1.1         , 3           , 10          , 0.1         , 0.1
-0.145174548, 9.784508    , 0.131094843 , 9.81888443E-05, 0.00021064686, -0.000121210796, -1.58314753 , -0.01455807 , 4.66753845E-05, 918.541748  , 29.7469959  , 820.229736  , 1.11        , 3           , 11          , 0.0091744   , 0.0091744
-0.147950038, 9.782336    , 0.128328755 , 0.000310536649, 0.000360532955, -0.000175786554, -1.58314443 , -0.0145598724, 4.30922046E-05, 918.541748  , 29.7469959  , 820.229858  , 1.12        , 3           , 12          , 0.174642846 , 0
-0.1488711  , 9.789518    , 0.132953972 , -6.089425E-05, 0.00027024775, 0.0003779353, -1.583145   , -0.0145561276, 4.03440463E-05, 918.54126   , 29.74971    , 820.23      , 1.13        , 3           , 13          , 0           , 0
-0.150087386, 9.79796     , 0.131135017 , 8.04144947E-05, 4.875564E-05, 1.57095565E-05, -1.58314419 , -0.0145559758, 3.985458E-05, 918.54126   , 29.74971    , 820.2301    , 1.14        , 3           , 14          , 0.000148947089, -0.00046060633
-0.139495611, 9.789707    , 0.135903791 , -6.666708E-05, -0.0003751764, 0.000281981454, -1.5831449  , -0.01455311 , 4.35714173E-05, 918.54126   , 29.74971    , 820.2302    , 1.15        , 3           , 15          , 0           , -8.754059E-05
-0.143295929, 9.796676    , 0.126172855 , 0.00048448806, -0.0004918686, -0.0002978676, -1.58314    , -0.0145560279, 4.852705E-05, 918.54126   , 29.74971    , 820.230347  , 1.16        , 3           , 16          , 0           , 1.401298E-45
-0.142029285, 9.7907505   , 0.133756921 , -0.000160226176, -0.000230597187, -0.000936417142, -1.58314168 , -0.0145653626, 5.094782E-05, 918.54126   , 29.74971    , 820.230469  , 1.17        , 3           , 20          , 0           , 0
-0.149691865, 9.794687    , 0.132669449 , -0.000469952967, -0.000802668161, 0.000238169392, -1.58314645 , -0.0145628816, 5.894547E-05, 918.54126   , 29.74971    , 820.2306    , 1.18        , 3           , 21          , 0           , 0
-0.1472691  , 9.797489    , 0.135716438 , -0.0005304505, -0.00040828003, 0.0007825613, -1.58315182 , -0.0145550063, 6.293195E-05, 918.54126   , 29.74971    , 820.2307    , 1.19        , 3           , 22          , 0           , 0
-0.1371814  , 9.791427    , 0.132445529 , 5.956486E-05, -0.000111177011, -0.000136647315, -1.5831511  , -0.0145563586, 6.406037E-05, 918.54126   , 29.74971    , 820.230835  , 1.2         , 3           , 40          , 0           , 0
-0.143483445, 9.792926    , 0.132390112 , 0.000154069668, -1.04890205E-05, -0.0010461068, -1.583183   , -0.0145745808, 6.478316E-05, 918.54126   , 29.74971    , 820.223938  , 1.21        , 3           , 41          , 0           , 0
-0.141590729, 9.792204    , 0.123427927 , 0.00018377071, -4.416838E-05, 1.96103138E-05, -1.58318126 , -0.0145743787, 6.5221866E-05, 918.54126   , 29.74971    , 820.22406   , 1.22        , 3           , 42          , 0           , 0
-0.142829359, 9.791879    , 0.118580781 , -0.000155529488, 0.000372546929, 0.000379865756, -1.58318269 , -0.0145706255, 6.144914E-05, 918.5109    , 29.7526951  , 820.2242    , 1.23        , 3           , 255         , 0           , 0
-0.139180452, 9.792822    , 0.113519624 , -0.000132812027, 0.0006059361, -0.0001124577, -1.583184   , -0.014571825, 5.5403747E-05, 918.5109    , 29.7526951  , 820.2243    , 1.24        , 3           , 255         , 0           , 0
-0.151023   , 9.796267    , 0.105733946 , -0.000746056845, 0.000165239326, 0.000177152629, -1.58319151 , -0.0145700751, 5.3729982E-05, 918.5109    , 29.7526951  , 820.2244    , 1.25        , 3           , 255         , 0           , 0
-0.146620378, 9.789434    , 0.103460476 , 1.67029939E-05, -0.000639592239, 0.000241264177, -1.58319139 , -0.0145675857, 6.00962376E-05, 918.5109    , 29.7526951  , 820.224548  , 1.26        , 3           , 255         , 0           , 0
-0.133153528, 9.789233    , 0.09963581  , 0.0006343674, -0.0006059977, 0.0004578646, -1.58318508 , -0.01456293 , 6.609972E-05, 918.5109    , 29.7526951  , 820.2247    , 1.27        , 3           , 255         , 0           , 0
-0.133312732, 9.794203    , 0.09624623  , -6.71150847E-05, -0.000343478867, 0.000363392959, -1.58318579 , -0.0145592559, 6.948915E-05, 918.5109    , 29.7526951  , 820.2248    , 1.28        , 3           , 255         , 0           , 0
-0.150242254, 9.789817    , 0.09711573  , 0.000391191628, -2.90299067E-05, -0.000623   , -1.583182   , -0.0145654818, 6.985753E-05, 918.5109    , 29.7526951  , 820.2249    , 1.29        , 3           , 255         , 0           , 0
-0.1568284  , 9.781738    , 0.108319715 , -8.01915E-05, 0.000140383665, 0.000401852216, -1.58318269 , -0.0145614827, 6.840404E-05, 918.5109    , 29.7526951  , 820.225037  , 1.3         , 3           , 255         , 0           , 0
-0.139942512, 9.784516    , 0.112092175 , -0.000232632112, -0.000417352625, 0.0003535563, -1.58314943 , -0.0145614455, 7.20133E-05 , 918.5109    , 29.7526951  , 820.2502    , 1.31        , 3           , 255         , 0           , 0
-0.139052048, 9.789335    , 0.127280429 , -0.0006267818, 2.4544599E-05, -0.001015945, -1.58315575 , -0.0145716062, 7.189363E-05, 918.5109    , 29.7526951  , 820.2504    , 1.32        , 3           , 255         , 0           , 0
-0.138223216, 9.794487    , 0.1175527   , -0.000470233063, 6.120847E-05, 7.01835743E-05, -1.5831604  , -0.0145709123, 7.127237E-05, 918.533569  , 29.7529678  , 820.2507    , 1.33        , 3           , 255         , 0           , 0
-0.135838032, 9.786291    , 0.11853309  , -0.0006412581, 0.000218116751, 0.000276623847, -1.58316684 , -0.0145681715, 6.90574452E-05, 918.533569  , 29.7529678  , 820.2509    , 1.34        , 3           , 255         , 0           , 0
-0.140495375, 9.787764    , 0.114590123 , 0.000131673412, 5.618832E-05, -0.000151251428, -1.58316553 , -0.0145696877, 6.85135E-05 , 918.533569  , 29.7529678  , 820.25116   , 1.35        , 3           , 255         , 0           , 0
-0.141256213, 9.80443     , 0.1255149   , -0.000206592958, -0.0006788345, -8.8799934E-05, -1.58316755 , -0.0145704933, 7.53119457E-05, 918.533569  , 29.7529678  , 820.2514    , 1.36        , 3           , 255         , 0           , 0
-0.140077457, 9.800432    , 0.135481521 , -6.331755E-05, -0.00060497236, -7.308858E-05, -1.58316827 , -0.0145711489, 8.137039E-05, 918.533569  , 29.7529678  , 820.251648  , 1.37        , 3           , 255         , 0           , 0
-0.143483937, 9.795458    , 0.14016211  , -0.000542288646, 7.98032852E-06, 0.000126437721, -1.58317363 , -0.0145698851, 8.12749058E-05, 918.533569  , 29.7529678  , 820.2519    , 1.38        , 3           , 255         , 0           , 0
-0.150445789, 9.787639    , 0.142281577 , 0.000154634443, 0.00013791793, 0.0005924887, -1.58317208 , -0.0145639786, 7.982282E-05, 918.533569  , 29.7529678  , 820.252136  , 1.39        , 3           , 255         , 0           , 0
-0.152076811, 9.78602     , 0.151442647 , -0.000175486959, 0.00015887912, -0.000153174522, -1.58317375 , -0.01456553 , 7.825151E-05, 918.533569  , 29.7529678  , 820.2524    , 1.4         , 3           , 255         , 0           , 0
-0.140432745, 9.796185    , 0.148944661 , -0.000624389562, -0.000121068791, -7.794206E-05, -1.58320081 , -0.014564625, 7.97757748E-05, 918.533569  , 29.7529678  , 820.2514    , 1.41        , 3           , 255         , 0           , 0
-0.135155529, 9.802636    , 0.141828373 , -0.000360514736, -7.886032E-05, 0.000255002 , -1.58320451 , -0.0145620648, 8.05325544E-05, 918.533569  , 29.7529678  , 820.251648  , 1.42        , 3           , 255         , 0           , 0
-0.139549568, 9.798584    , 0.130645379 , -0.00040289294, -0.000242498762, 0.000414786133, -1.58320856 , -0.0145578869, 8.290628E-05, 918.5867    , 29.7541885  , 820.2519    , 1.43        , 3           , 255         , 0           , 0
-0.141774252, 9.797606    , 0.117791034 , 0.000406169565, -0.000204372976, 0.000387573265, -1.58320451 , -0.0145539884, 8.490137E-05, 918.5867    , 29.7541885  , 820.252136  , 1.44        , 3           , 255         , 0           , 0
-0.144597292, 9.785078    , 0.116545819 , 4.69011138E-06, -0.000323776272, -0.000276139152, -1.58320451 , -0.0145567078, 8.817346E-05, 918.5867    , 29.7541885  , 820.2524    , 1.45        , 3           , 255         , 0           , 0
-0.1367226  , 9.786617    , 0.121694706 , -0.000107337459, -0.0002576543, 0.000256338972, -1.58320558 , -0.0145541141, 9.071716E-05, 918.5867    , 29.7541885  , 820.2526    , 1.46        , 3           , 255         , 0           , 0
-0.13218531 , 9.799706    , 0.13977097  , -5.48897369E-05, 7.685853E-05, -0.00076941133, -1.58320618 , -0.0145618143, 9.004469E-05, 918.5867    , 29.7541885  , 820.252869  , 1.47        , 3           , 255         , 0           , 0
-0.142795548, 9.806785    , 0.127325982 , -0.000121950841, -0.0002682233, -0.0006560047, -1.58320737 , -0.014568341, 9.280729E-05, 918.5867    , 29.7541885  , 820.2531    , 1.48        , 3           , 255         , 0           , 0
-0.156036079, 9.791394    , 0.122236155 , -9.74702562E-05, -0.000187510916, -0.0002431261, -1.58320832 , -0.0145707484, 9.4713454E-05, 918.5867    , 29.7541885  , 820.253357  , 1.49        , 3           , 255         , 0           , 0
-0.1558677  , 9.781936    , 0.121045545 , 6.332026E-05, -0.000178613875, 0.000187113445, -1.58320773 , -0.0145688551, 9.64761639E-05, 918.5867    , 29.7541885  , 820.2536    , 1.5         , 3           , 255         , 0           , 0
-0.143520921, 9.784969    , 0.115836814 , -1.504086E-05, -0.00011181517, -0.000126038649, -1.58322418 , -0.0145699242, 9.784675E-05, 918.5867    , 29.7541885  , 820.196655  , 1.51        , 3           , 255         , 0           , 0
-0.1396893  , 9.791933    , 0.103002332 , 2.67750729E-05, 0.00027565888, -0.000463079952, -1.58322382 , -0.0145745892, 9.514703E-05, 918.5867    , 29.7541885  , 820.196655  , 1.52        , 3           , 255         , 0           , 0
-0.133474827, 9.794128    , 0.113396525 , 0.000235143161, -0.000484063232, -0.0004223314, -1.58322144 , -0.01457875 , 0.000100039812, 918.5105    , 29.7554779  , 820.196655  , 1.53        , 3           , 255         , 0           , 0
-0.130549908, 9.797114    , 0.109066054 , -0.000250224373, -0.000570699631, -0.0005788035, -1.583224   , -0.0145844659, 0.000105818341, 918.5105    , 29.7554779  , 820.196655  , 1.54        , 3           , 255         , 0           , 0
-0.13769336 , 9.803546    , 0.122921392 , 0.000727800943, -0.000689611945, -0.000464027515, -1.58321679 , -0.014589021, 0.00011277142, 918.5105    , 29.7554779  , 820.196655  , 1.55        , 3           , 255         , 0           , 0
-0.142826915, 9.793142    , 0.127316356 , 0.000368980051, -0.000290238124, 6.95707349E-05, -1.58321309 , -0.014588289, 0.000115664887, 918.5105    , 29.7554779  , 820.196655  , 1.56        , 3           , 255         , 0           , 0
-0.158963248, 9.790606    , 0.133557543 , 0.000200477385, 0.000113351271, -0.000773762644, -1.58321106 , -0.0145960394, 0.000114627292, 918.5105    , 29.7554779  , 820.196655  , 1.57        , 3           , 255         , 0           , 0
-0.1526958  , 9.778471    , 0.1252854   , -0.0006561945, -1.11429254E-05, -0.0005492212, -1.58321774 , -0.0146015305, 0.00011480799, 918.5105    , 29.7554779  , 820.196655  , 1.58        , 3           , 255         , 0           , 0
-0.14869234 , 9.791233    , 0.122830555 , -0.0005878987, -3.12997145E-06, -0.00117762957, -1.58322358 , -0.0146133052, 0.000114985451, 918.5105    , 29.7554779  , 820.196655  , 1.59        , 3           , 255         , 0           , 0
-0.1357754  , 9.7866      , 0.121376432 , -0.000269879034, 0.000182285148, -0.0005313409, -1.58322632 , -0.0146186417, 0.000113229253, 918.5105    , 29.7554779  , 820.196655  , 1.6         , 3           , 255         , 0           , 0
-0.1268231  , 9.790407    , 0.126713127 , -2.73576516E-05, -0.000202780386, 0.0005578767, -1.58322036 , -0.0146117415, 0.00011509769, 918.5105    , 29.7554779  , 820.2263    , 1.61        , 3           , 255         , 0           , 0
-0.123772576, 9.812761    , 0.131434157 , -0.000344710948, -0.0002927667, -3.68055262E-05, -1.58322382 , -0.0146120731, 0.000118030286, 918.5105    , 29.7554779  , 820.2265    , 1.62        , 3           , 255         , 0           , 0
-0.131280109, 9.783396    , 0.127137139 , -0.000384547224, 0.000104594423, 8.359785E-05, -1.58322775 , -0.01461125 , 0.000116974035, 918.5137    , 29.7571049  , 820.2267    , 1.63        , 3           , 255         , 0           , 0
-0.143310219, 9.78381252  , 0.118156508 , 9.429731E-05, 9.140157E-05, -4.049988E-05, -1.58322668 , -0.014611667, 0.000116064039, 918.5137    , 29.7571049  , 820.226868  , 1.64        , 3           , 255         , 0           , 0
-0.16083695 , 9.797205    , 0.106076382 , 0.000288326322, 5.628873E-05, -0.000180112052, -1.58322382 , -0.0146134738, 0.000115523362, 918.5137    , 29.7571049  , 820.227051  , 1.65        , 3           , 255         , 0           , 0
-0.1589538  , 9.791182    , 0.107378408 , 0.000238829147, -0.0006065372, 0.0003142447, -1.58322155 , -0.014610257, 0.000121550111, 918.5137    , 29.7571049  , 820.227234  , 1.66        , 3           , 255         , 0           , 0
-0.144846186, 9.791381    , 0.107176207 , 0.0001333747, -0.0002557234, -0.0002188363, -1.58322012 , -0.0146124121, 0.00012413389, 918.5137    , 29.7571049  , 820.2274    , 1.67        , 3           , 255         , 0           , 0
-0.1290607  , 9.788498    , 0.1235189   , 0.000293079356, -0.000281307526, 0.000239485613, -1.58321726 , -0.0146099851, 0.000126917424, 918.5137    , 29.7571049  , 820.2276    , 1.68        , 3           , 255         , 0           , 0
-0.144390032, 9.782252    , 0.11718978  , 0.00013791566, -9.044047E-05, 0.000455890258, -1.583216   , -0.014605416, 0.000127765947, 918.5137    , 29.7571049  , 820.2278    , 1.69        , 3           , 255         , 0           , 0
-0.146840259, 9.780669    , 0.12581411  , 0.0006947449, 0.000114349095, 9.88131142E-05, -1.583209   , -0.0146044409, 0.000126610059, 918.5137    , 29.7571049  , 820.227966  , 1.7         , 3           , 255         , 0           , 0
-0.141732022, 9.795966    , 0.119552709 , 0.000522978837, -0.000343931431, -0.000828921853, -1.58319592 , -0.0146065  , 0.000130036278, 918.5137    , 29.7571049  , 820.2518    , 1.71        , 3           , 255         , 0           , 0
-0.135884881, 9.801572    , 0.117264211 , 2.84501E-05 , -0.000444470148, -0.0004267405, -1.58319557 , -0.0146107115, 0.000134533184, 918.5137    , 29.7571049  , 820.2521    , 1.72        , 3           , 255         , 0           , 0
-0.143314078, 9.781846    , 0.116257191 , -0.000112359587, 0.000218770729, -0.000475252222, -1.58319676 , -0.01461549 , 0.000132405839, 918.469849  , 29.7556133  , 820.2524    , 1.73        , 3           , 255         , 0           , 0
-0.152425051, 9.792357    , 0.116896406 , -0.000366548367, 0.000215039618, -0.0009182679, -1.58320045 , -0.0146246981, 0.000130369765, 918.469849  , 29.7556133  , 820.2527    , 1.74        , 3           , 255         , 0           , 0
-0.151077375, 9.79794     , 0.114117481 , -0.000350827584, 0.000263612281, -2.4634428E-05, -1.583204   , -0.0146249775, 0.00012773709, 918.469849  , 29.7556133  , 820.253     , 1.75        , 3           , 255         , 0           , 0
-0.1455348  , 9.79571     , 0.107577108 , 0.0003982662, -0.000109162356, -0.000168052167, -1.5832001  , -0.0146266418, 0.00012884922, 918.469849  , 29.7556133  , 820.2533    , 1.76        , 3           , 255         , 0           , 0
-0.146141365, 9.78701     , 0.116367877 , -9.916243E-06, -0.000142618548, 2.56162311E-05, -1.58320022 , -0.0146263679, 0.000130271976, 918.469849  , 29.7556133  , 820.2536    , 1.77        , 3           , 255         , 0           , 0
-0.14639467 , 9.791762    , 0.127526835 , 0.00018386812, 0.0005047864, 0.000165869424, -1.58319843 , -0.0146247707, 0.000125203645, 918.469849  , 29.7556133  , 820.2539    , 1.78        , 3           , 255         , 0           , 0
-0.1367245  , 9.790654    , 0.129153967 , -5.28293531E-05, 0.000358552934, 0.000345791515, -1.5831989  , -0.0146213574, 0.00012157482, 918.469849  , 29.7556133  , 820.2542    , 1.79        , 3           , 255         , 0           , 0
-0.131811112, 9.789999    , 0.124011993 , -0.0006164323, 0.000114970171, 0.0005693307, -1.583205   , -0.014615681, 0.000120354634, 918.469849  , 29.7556133  , 820.2545    , 1.8         , 3           , 255         , 0           , 0
-0.135910064, 9.792959    , 0.120628133 , -0.00028832216, 0.000135945971, 0.000281461136, -1.58320141 , -0.0146125648, 0.000118867152, 918.469849  , 29.7556133  , 820.3257    , 1.81        , 3           , 255         , 0           , 0
-0.140966192, 9.805383    , 0.115166649 , 0.000168729181, -0.0001836654, -0.000167857273, -1.58319974 , -0.0146142216, 0.00012072442, 918.469849  , 29.7556133  , 820.3264    , 1.82        , 3           , 255         , 0           , 0
-0.145810574, 9.79575     , 0.123873211 , 0.000272352831, -0.000454709254, -0.000816434738, -1.58319712 , -0.0146223279, 0.000125373146, 918.5879    , 29.7586651  , 820.327148  , 1.83        , 3           , 255         , 0           , 0
-0.155156419, 9.786668    , 0.116334043 , -0.000116849158, -5.35550935E-05, -0.0006897876, -1.58319831 , -0.0146292169, 0.000125993975, 918.5879    , 29.7586651  , 820.3279    , 1.84        , 3           , 255         , 0           , 0
-0.147872373, 9.801039    , 0.1178506   , 0.00019734331, -4.15200775E-05, -0.000201155461, -1.58319628 , -0.0146312267, 0.000126433588, 918.5879    , 29.7586651  , 820.3286    , 1.85        , 3           , 255         , 0           , 0
-0.144089058, 9.790146    , 0.120011069 , 0.000267867872, 6.973345E-05, -0.000621600135, -1.58319354 , -0.0146374479, 0.000125813283, 918.5879    , 29.7586651  , 820.329346  , 1.86        , 3           , 255         , 0           , 0
-0.132019535, 9.788872    , 0.129751638 , 0.0005709678, -0.000550219556, -0.000240031513, -1.58318782 , -0.0146397818, 0.00013134499, 918.5879    , 29.7586651  , 820.3301    , 1.87        , 3           , 255         , 0           , 0
-0.129587144, 9.791682    , 0.129175365 , 0.00014535732, -4.75248962E-05, 0.0006093556, -1.58318639 , -0.0146336826, 0.000131744557, 918.5879    , 29.7586651  , 820.3308    , 1.88        , 3           , 255         , 0           , 0
-0.129848957, 9.788302    , 0.127942681 , -0.0003399228, 0.000237205561, 0.000799846253, -1.58318973 , -0.0146257151, 0.000129273016, 918.5879    , 29.7586651  , 820.331543  , 1.89        , 3           , 255         , 0           , 0
-0.1319113  , 9.789693    , 0.128563911 , -0.00044996565, -2.8110604E-05, 0.000649261347, -1.58319426 , -0.0146192182, 0.000129473265, 918.5879    , 29.7586651  , 820.3323    , 1.9         , 3           , 255         , 0           , 0
-0.141634911, 9.785147    , 0.111837588 , -0.000123275691, 0.000126450788, 6.69690344E-05, -1.58319879 , -0.0146094877, 0.0001282489, 918.5879    , 29.7586651  , 820.258     , 1.91        , 3           , 255         , 0           , 0
-0.160760835, 9.791185    , 0.113273062 , 9.908472E-05, 3.31985066E-05, -0.000260695029, -1.58319771 , -0.0146120982, 0.000127949 , 918.5879    , 29.7586651  , 820.2583    , 1.92        , 3           , 255         , 0           , 0
-0.159166753, 9.788459    , 0.110996559 , -0.0003109614, 0.000210329687, -0.0005318181, -1.58320093 , -0.0146174422, 0.000125911509, 918.477966  , 29.760294   , 820.2586    , 1.93        , 3           , 255         , 0           , 0
-0.140629947, 9.786433    , 0.127612814 , 0.000233486382, 0.00016199844, -0.0007280435, -1.58319855 , -0.0146247428, 0.000124381186, 918.477966  , 29.760294   , 820.2589    , 1.94        , 3           , 255         , 0           , 0
-0.115464211, 9.799815    , 0.121501528 , -6.957509E-05, 0.0004596428, 0.000711323053, -1.58319914 , -0.0146176862, 0.0001196966, 918.477966  , 29.760294   , 820.2592    , 1.95        , 3           , 255         , 0           , 0
-0.113437913, 9.797089    , 0.128644377 , -9.687399E-05, 0.000224190429, 7.87288445E-05, -1.58320022 , -0.01461693 , 0.000117445794, 918.477966  , 29.760294   , 820.2595    , 1.96        , 3           , 255         , 0           , 0
-0.128668964, 9.79107952  , 0.12452662  , -2.14871543E-05, 0.000267652 , -0.000290242548, -1.58320034 , -0.0146198636, 0.00011480524, 918.477966  , 29.760294   , 820.2598    , 1.97        , 3           , 255         , 0           , 0
-0.151022226, 9.789343    , 0.127440542 , 0.000620043254, -0.000158248935, -0.000721694669, -1.58319414 , -0.01462706 , 0.000116476687, 918.477966  , 29.760294   , 820.260132  , 1.98        , 3           , 255         , 0           , 0
-0.170360833, 9.789648    , 0.1245539   , -5.52160927E-05, -0.000260053785, -0.0002701256, -1.58319461 , -0.0146297291, 0.00011910982, 918.477966  , 29.760294   , 820.260437  , 1.99        , 3           , 255         , 0           , 0
-0.1651632  , 9.78364     , 0.128225967 , 9.03444743E-05, -0.000122992613, 0.000201808638, -1.58319378 , -0.0146276969, 0.000120315075, 918.477966  , 29.760294   , 820.260742  , 2           , 3           , 0           , 7.47323656  , 200
-0.138972953, 9.791391    , 0.122026123 , 0.000755874149, 9.274334E-05, -0.00035800552, -1.58318734 , -0.0146353422, 0.000119450262, 918.477966  , 29.760294   , 820.3253    , 2.01        , 3           , 1           , 0           , 0
-0.124787651, 9.79679     , 0.124082789 , 8.801058E-05, 0.000256193482, -0.0001797067, -1.58318651 , -0.0146371713, 0.000116911215, 918.477966  , 29.760294   , 820.326     , 2.02        , 3           , 2           , 0           , 0
-0.121067919, 9.802847    , 0.118474618 , 0.000130554778, -0.000260050845, 5.23192321E-05, -1.5831852  , -0.0146366153, 0.000119504759, 918.5019    , 29.7599545  , 820.32666   , 2.03        , 3           , 3           , 0           , 0
-0.139073685, 9.788256    , 0.110797092 , -0.000344291882, 5.556125E-06, -0.0005178999, -1.58318865 , -0.0146417944, 0.000119513148, 918.5019    , 29.7599545  , 820.327332  , 2.04        , 3           , 4           , 0           , 0
-0.154251844, 9.788049    , 0.114049196 , 0.000321397529, 2.24644318E-05, -0.00012041779, -1.58318543 , -0.014643   , 0.000119303579, 918.5019    , 29.7599545  , 820.328     , 2.05        , 3           , 5           , 0           , 0
-0.156906754, 9.788287    , 0.122900806 , -0.000264257746, -0.00015807859, 0.00045455026, -1.58318818 , -0.014638436, 0.000120827848, 918.5019    , 29.7599545  , 820.328735  , 2.06        , 3           , 6           , 0           , 0
-0.130409911, 9.788604    , 0.134187847 , -2.99036619E-05, -0.000120105717, 0.000254049752, -1.58318853 , -0.0146358805, 0.000121997713, 918.5019    , 29.7599545  , 820.329468  , 2.07        , 3           , 7           , 0           , 0
-0.123806968, 9.784479    , 0.12765947  , -0.00034605636, 3.748905E-05, 0.000190107225, -1.583192   , -0.0146339862, 0.000121599973, 918.5019    , 29.7599545  , 820.3302    , 2.08        , 3           , 8           , 5           , 5
-0.139127776, 9.79409     , 0.1200068   , 0.000190560444, 7.47932063E-05, 0.000167293038, -1.58319008 , -0.0146323228, 0.000120831559, 918.5019    , 29.7599545  , 820.330933  , 2.09        , 3           , 9           , 5           , 0.1
-0.1520051  , 9.799594    , 0.122614644 , 0.00017358709, -2.00233771E-05, -0.0002988938, -1.58318841 , -0.01463531 , 0.000121069068, 918.5019    , 29.7599545  , 820.331665  , 2.1         , 3           , 10          , 0.1         , 0.1
-0.151387855, 9.792997    , 0.130552    , -0.000150506108, -0.000851241057, 1.06226071E-05, -1.5831908  , -0.0146227349, 0.000129592023, 918.5019    , 29.7599545  , 820.3598    , 2.11        , 3           , 11          , 0.00802404  , 0.008024039
-0.135949224, 9.797428    , 0.143194541 , 2.79333472E-05, -0.000355178025, -0.0001461214, -1.58319044 , -0.0146241523, 0.000133161229, 918.5019    , 29.7599545  , 820.360657  , 2.12        , 3           , 12          , 0.174643889 , 0
-0.136834264, 9.78733349  , 0.151871651 , -0.000125237726, -0.000112106267, 0.000173386274, -1.58319163 , -0.0146224042, 0.0001342603, 918.515442  , 29.7584629  , 820.3616    , 2.13        , 3           , 13          , 0           , 0
-0.137427732, 9.779993    , 0.151151866 , 0.0004774201, -0.0001916386, 0.000235903513, -1.583187   , -0.014620021, 0.00013614737, 918.515442  , 29.7584629  , 820.3625    , 2.14        , 3           , 14          , 0.000148974781, -0.000460605253
-0.134299323, 9.788239    , 0.147333458 , 7.734215E-05, -0.0002441525, 0.000613423763, -1.58318615 , -0.0146138566, 0.000138512245, 918.515442  , 29.7584629  , 820.3634    , 2.15        , 3           , 15          , 0           , -8.759349E-05
-0.137835026, 9.802559    , 0.133139133 , -0.000199374772, 0.000139076321, -6.818333E-05, -1.58318818 , -0.0146145569, 0.000137130482, 918.515442  , 29.7584629  , 820.3643    , 2.16        , 3           , 16          , 0           , 1.401298E-45
-0.139202416, 9.789728    , 0.126668453 , -0.000474733533, 3.11259646E-06, 0.000385260617, -1.58319283 , -0.014610704, 0.000137052222, 918.515442  , 29.7584629  , 820.365234  , 2.17        , 3           , 20          , 0           , 0
-0.152184874, 9.787695    , 0.115492582 , -0.000368085923, 7.741165E-05, 0.000312588352, -1.58319652 , -0.0146075888, 0.000136239556, 918.515442  , 29.7584629  , 820.36615   , 2.18        , 3           , 21          , 0           , 0
-0.150922254, 9.796949    , 0.116549119 , -0.00016405512, -0.000130343076, -0.000323752465, -1.58319831 , -0.01461081 , 0.000137584066, 918.515442  , 29.7584629  , 820.367065  , 2.19        , 3           , 22          , 0           , 0
-0.138090134, 9.801264    , 0.112400934 , 0.00019391063, -0.0001918932, -0.0006591536, -1.5831964  , -0.0146173751, 0.000139584314, 918.515442  , 29.7584629  , 820.368     , 2.2         , 3           , 40          , 0           , 0
-0.127758533, 9.79221     , 0.109513417 , -0.000238669687, 0.0003190114, -0.0006822716, -1.58322394 , -0.0146204168, 0.000136848743, 918.515442  , 29.7584629  , 820.3747    , 2.21        , 3           , 41          , 0           , 0
-0.126217335, 9.793268    , 0.101522014 , 0.000233257189, -0.0002488288, 6.514669E-05, -1.58322167 , -0.0146197351, 0.000139329117, 918.515442  , 29.7584629  , 820.3756    , 2.22        , 3           , 42          , 0           , 0
-0.141082734, 9.794067    , 0.103642    , -0.0001955348, -0.0004095995, 0.000443198718, -1.5832237  , -0.0146152526, 0.000143370082, 918.529663  , 29.7607689  , 820.3765    , 2.23        , 3           , 255         , 0           , 0
-0.149580464, 9.791611    , 0.101967372 , -0.000372435141, -0.00014329527, 0.000202925556, -1.5832274  , -0.0146132046, 0.000144777456, 918.529663  , 29.7607689  , 820.377441  , 2.24        , 3           , 255         , 0           , 0
-0.145261362, 9.793798    , 0.0975388438, -0.000456348353, -0.0002826461, -0.000272592064, -1.58323193 , -0.0146158962, 0.000147637853, 918.529663  , 29.7607689  , 820.378357  , 2.25        , 3           , 255         , 0           , 0
-0.145662233, 9.789534    , 0.09253278  , -0.000140749922, 6.153819E-05, -0.0007926737, -1.58323336 , -0.0146238282, 0.000147120954, 918.529663  , 29.7607689  , 820.3793    , 2.26        , 3           , 255         , 0           , 0
-0.143574283, 9.789644    , 0.102561392 , -0.00021632784, 5.83841465E-05, -2.31256636E-05, -1.5832355  , -0.0146240667, 0.000146539722, 918.529663  , 29.7607689  , 820.3802    , 2.27        , 3           , 255         , 0           , 0
-0.136479616, 9.79055     , 0.107859574 , -5.97934559E-05, -0.000222749135, 0.0005222514, -1.58323622 , -0.0146188186, 0.000148702922, 918.529663  , 29.7607689  , 820.381165  , 2.28        , 3           , 255         , 0           , 0
-0.137694284, 9.799215    , 0.114272371 , 0.000165146455, -3.87739274E-05, 0.000578951 , -1.58323455 , -0.0146130249, 0.000149018219, 918.529663  , 29.7607689  , 820.382141  , 2.29        , 3           , 255         , 0           , 0
-0.145090938, 9.798115    , 0.1221483   , -0.0005103296, -0.0001521745, -0.000229096011, -1.58323956 , -0.0146152973, 0.000150568565, 918.529663  , 29.7607689  , 820.3831    , 2.3         , 3           , 255         , 0           , 0
-0.136562958, 9.793425    , 0.119776011 , -0.000229947065, -0.000267450552, -0.000885334739, -1.58320761 , -0.0146172075, 0.0001528515, 918.529663  , 29.7607689  , 820.3696    , 2.31        , 3           , 255         , 0           , 0
-0.14396444 , 9.791937    , 0.125625849 , 2.54490733E-05, 0.000219977985, -9.35123E-05, -1.58320737 , -0.01461817 , 0.000150662177, 918.529663  , 29.7607689  , 820.3705    , 2.32        , 3           , 255         , 0           , 0
-0.156227276, 9.793947    , 0.1280577   , 0.000316854741, -0.000136343035, 0.000128996136, -1.58320415 , -0.0146168647, 0.0001520095, 918.5715    , 29.76165    , 820.371338  , 2.33        , 3           , 255         , 0           , 0
-0.143606514, 9.787995    , 0.126861721 , 0.000128260013, -0.0002096873, 0.0005396456, -1.58320284 , -0.0146114435, 0.0001540395, 918.5715    , 29.76165    , 820.3722    , 2.34        , 3           , 255         , 0           , 0
-0.128482461, 9.794966    , 0.132988453 , -0.000225513213, -0.0002163086, 0.000191017636, -1.583205   , -0.0146095082, 0.0001561785, 918.5715    , 29.76165    , 820.373047  , 2.35        , 3           , 255         , 0           , 0
-0.1277748  , 9.7900095   , 0.147710949 , -0.000256029336, -4.206813E-06, 8.514013E-06, -1.58320749 , -0.0146094225, 0.000156219481, 918.5715    , 29.76165    , 820.3739    , 2.36        , 3           , 255         , 0           , 0
-0.137718737, 9.793028    , 0.1484668   , 0.000340349681, 0.0004661554, 0.000492511841, -1.58320415 , -0.0146045554, 0.000151497647, 918.5715    , 29.76165    , 820.374756  , 2.37        , 3           , 255         , 0           , 0
-0.153069288, 9.792823    , 0.142131686 , 0.000220048227, -0.000262454123, 0.0008369833, -1.58320189 , -0.0145961531, 0.000154018067, 918.5715    , 29.76165    , 820.3756    , 2.38        , 3           , 255         , 0           , 0
-0.151929021, 9.783303    , 0.135550082 , -0.000138910487, -0.0002710908, 0.0002933576, -1.58320332 , -0.0145931859, 0.000156690774, 918.5715    , 29.76165    , 820.376465  , 2.39        , 3           , 255         , 0           , 0
-0.148748755, 9.793853    , 0.123021945 , -0.000304903922, 0.0001721284, 0.000224789983, -1.5832063  , -0.0145909628, 0.000154941532, 918.5715    , 29.76165    , 820.3773    , 2.4         , 3           , 255         , 0           , 0
-0.143043533, 9.804858    , 0.124424    , -0.0004018182, 8.74713E-05 , -0.000469679217, -1.58323634 , -0.014595056, 0.000154504261, 918.5715    , 29.76165    , 820.308838  , 2.41        , 3           , 255         , 0           , 0
-0.124661684, 9.800753    , 0.123087309 , -0.000452946464, 6.95331255E-06, -0.0002694142, -1.58324087 , -0.0145977521, 0.000154468857, 918.5715    , 29.76165    , 820.309265  , 2.42        , 3           , 255         , 0           , 0
-0.130746752, 9.80291     , 0.128216773 , -0.0005308905, 0.000342837651, -0.0006063642, -1.58324623 , -0.014603857, 0.000151116692, 918.5459    , 29.7623978  , 820.3097    , 2.43        , 3           , 255         , 0           , 0
-0.142325252, 9.792806    , 0.119640544 , -0.000186871883, 0.000206781726, -0.0001969364, -1.583248   , -0.0146058537, 0.0001490736, 918.5459    , 29.7623978  , 820.3101    , 2.44        , 3           , 255         , 0           , 0
-0.153156191, 9.789354    , 0.121388569 , -3.03103952E-05, -1.76017638E-05, -9.714958E-05, -1.58324838 , -0.0146068223, 0.000149261759, 918.5459    , 29.7623978  , 820.310547  , 2.45        , 3           , 255         , 0           , 0
-0.15011999 , 9.79511     , 0.117435172 , 0.0006666206, -0.000309001131, 0.000283658446, -1.5832417  , -0.0146039464, 0.000152316352, 918.5459    , 29.7623978  , 820.311     , 2.46        , 3           , 255         , 0           , 0
-0.144154459, 9.783507    , 0.130012512 , 0.000626916357, 0.000129949243, -2.89156014E-06, -1.5832355  , -0.014603992, 0.000151017492, 918.5459    , 29.7623978  , 820.3114    , 2.47        , 3           , 255         , 0           , 0
-0.139334127, 9.786364    , 0.117910251 , 0.0001714083, 0.000350857154, 0.0005728352, -1.58323371 , -0.0145983072, 0.000147438026, 918.5459    , 29.7623978  , 820.3118    , 2.48        , 3           , 255         , 0           , 0
-0.140887991, 9.78879     , 0.1213752   , -7.37731E-05, 0.000492338149, -0.000228457822, -1.58323443 , -0.0146006541, 0.000142542936, 918.5459    , 29.7623978  , 820.312256  , 2.49        , 3           , 255         , 0           , 0
-0.1431739  , 9.793129    , 0.107231379 , -0.000203288655, 0.000227568715, 5.13887935E-05, -1.58323646 , -0.014600168, 0.000140260483, 918.5459    , 29.7623978  , 820.3127    , 2.5         , 3           , 255         , 0           , 0
-0.143504888, 9.795262    , 0.109057561 , -0.000302398927, 0.000394351722, 0.0006020991, -1.58323765 , -0.0145905446, 0.000136217641, 918.5459    , 29.7623978  , 820.2863    , 2.51        , 3           , 255         , 0           , 0
-0.141320556, 9.798282    , 0.105918184 , -0.000224685587, 0.000100174075, 0.0006216917, -1.58323991 , -0.0145843411, 0.000135138587, 918.5459    , 29.7623978  , 820.2866    , 2.52        , 3           , 255         , 0           , 0
-0.144175157, 9.792422    , 0.115649521 , -0.00020977977, -0.000387776468, 0.000141105731, -1.583242   , -0.0145828845, 0.000138998381, 918.5007    , 29.7627354  , 820.2869    , 2.53        , 3           , 255         , 0           , 0
-0.134332269, 9.78988     , 0.126749456 , -0.000220228685, -0.0002118856, -8.069954E-06, -1.58324432 , -0.0145829385, 0.000141118289, 918.5007    , 29.7627354  , 820.287231  , 2.54        , 3           , 255         , 0           , 0
-0.126172423, 9.784891    , 0.1257896   , 0.000100953373, -0.0003643427, -4.48505743E-05, -1.58324325 , -0.0145833408, 0.0001447676, 918.5007    , 29.7627354  , 820.287537  , 2.55        , 3           , 255         , 0           , 0
-0.129750624, 9.795488    , 0.131376192 , 0.0002463666, -0.000204871991, -0.000329482515, -1.58324075 , -0.01458661 , 0.000146857245, 918.5007    , 29.7627354  , 820.287842  , 2.56        , 3           , 255         , 0           , 0
-0.145805612, 9.791696    , 0.125184029 , 0.0003824209, 0.000362826831, 0.00018847789, -1.58323681 , -0.01458477 , 0.000143205616, 918.5007    , 29.7627354  , 820.288147  , 2.57        , 3           , 255         , 0           , 0
-0.159677178, 9.800218    , 0.132148534 , 0.00033916923, 0.0006411395, 9.270796E-05, -1.58323348 , -0.0145839229, 0.000136783929, 918.5007    , 29.7627354  , 820.288452  , 2.58        , 3           , 255         , 0           , 0
-0.1397351  , 9.789238    , 0.129158586 , 7.718468E-05, 2.05482356E-05, -7.61429546E-05, -1.58323252 , -0.0145846875, 0.0001365874, 918.5007    , 29.7627354  , 820.288757  , 2.59        , 3           , 255         , 0           , 0
-0.133994   , 9.791661    , 0.128554627 , 0.00029538956, -0.000137380732, -0.000201238814, -1.58322966 , -0.0145866824, 0.000137986382, 918.5007    , 29.7627354  , 820.289063  , 2.6         , 3           , 255         , 0           , 0
-0.138327181, 9.793013    , 0.120355591 , 0.0004182908, 0.000710160355, -0.0004173514, -1.58322752 , -0.0145850191, 0.000130966728, 918.5007    , 29.7627354  , 820.327     , 2.61        , 3           , 255         , 0           , 0
-0.13744697 , 9.798228    , 0.123931706 , -0.000462483382, -8.70385E-05, -0.000110745212, -1.58323216 , -0.0145861143, 0.000131851571, 918.5007    , 29.7627354  , 820.3276    , 2.62        , 3           , 255         , 0           , 0
-0.140654042, 9.784724    , 0.110031918 , 2.08481943E-05, -0.0005942143, 4.58466129E-05, -1.583232   , -0.0145855825, 0.000137787531, 918.518066  , 29.7607     , 820.3281    , 2.63        , 3           , 255         , 0           , 0
-0.147907972, 9.783532    , 0.107929431 , -8.203853E-05, 7.626219E-05, 0.000135498383, -1.58323288 , -0.0145842368, 0.000137007926, 918.518066  , 29.7607     , 820.3287    , 2.64        , 3           , 255         , 0           , 0
-0.151125163, 9.794751    , 0.1017362   , -3.74130468E-05, -0.00016153825, 0.000787610537, -1.58323312 , -0.014576342, 0.000138525211, 918.518066  , 29.7607     , 820.3292    , 2.65        , 3           , 255         , 0           , 0
-0.147434562, 9.790828    , 0.112718627 , 0.000110097826, -3.05930735E-05, 0.0001627253, -1.58323216 , -0.01457471 , 0.000138811141, 918.518066  , 29.7607     , 820.3298    , 2.66        , 3           , 255         , 0           , 0
-0.144549638, 9.79421     , 0.122380413 , -0.0001323891, 0.000264113827, -0.0002343918, -1.58323336 , -0.014577087, 0.0001361999, 918.518066  , 29.7607     , 820.3303    , 2.67        , 3           , 255         , 0           , 0
-0.139391452, 9.781926    , 0.12403287  , -4.306159E-06, -0.000335837016, -9.62207E-05, -1.58323348 , -0.0145780081, 0.000139569776, 918.518066  , 29.7607     , 820.3309    , 2.68        , 3           , 255         , 0           , 0
-0.130005941, 9.794885    , 0.118201815 , 0.000839920656, -0.000147319981, -0.000118669021, -1.583225   , -0.014579176, 0.000141057288, 918.518066  , 29.7607     , 820.3314    , 2.69        , 3           , 255         , 0           , 0
-0.137499645, 9.79648     , 0.124875829 , 0.000127800784, 5.752599E-05, -1.81725336E-05, -1.58322358 , -0.014579365, 0.000140484466, 918.518066  , 29.7607     , 820.332     , 2.7         , 3           , 255         , 0           , 0
-0.145721525, 9.798558    , 0.122782551 , -0.0005219151, 4.15893737E-08, 0.000306927948, -1.5832175  , -0.01457335 , 0.00014028  , 918.518066  , 29.7607     , 820.3406    , 2.71        , 3           , 255         , 0           , 0
-0.145025283, 9.801951    , 0.126819849 , -0.0003338755, 0.000203343923, 0.000404674851, -1.58322084 , -0.0145693282, 0.00013819593, 918.518066  , 29.7607     , 820.3412    , 2.72        , 3           , 255         , 0           , 0
-0.144309163, 9.791374    , 0.136476725 , -4.281843E-05, -0.0002415239, 0.0004695898, -1.58322144 , -0.0145646026, 0.000140553821, 918.569458  , 29.7618542  , 820.3418    , 2.73        , 3           , 255         , 0           , 0
-0.151426911, 9.787855    , 0.136431545 , -0.00028989304, -0.0002019378, -0.000405566039, -1.5832243  , -0.0145686334, 0.000142623438, 918.569458  , 29.7618542  , 820.3424    , 2.74        , 3           , 255         , 0           , 0
-0.143529549, 9.79487     , 0.136649251 , 4.1656167E-05, 1.83072116E-05, 2.34808322E-05, -1.58322394 , -0.0145684006, 0.000142438555, 918.569458  , 29.7618542  , 820.343     , 2.75        , 3           , 255         , 0           , 0
-0.138617679, 9.788441    , 0.137422562 , -0.0004425046, 0.00010721889, -0.0005515521, -1.58322823 , -0.01457393 , 0.000141434488, 918.569458  , 29.7618542  , 820.3436    , 2.76        , 3           , 255         , 0           , 0
-0.1420462  , 9.793834    , 0.1349711   , -0.00021338751, 0.00040183487, -0.00044499457, -1.5832305  , -0.0145784263, 0.000137472234, 918.569458  , 29.7618542  , 820.344238  , 2.77        , 3           , 255         , 0           , 0
-0.149248481, 9.793442    , 0.123821318 , -0.00045887637, 0.00055463746, -0.000195727334, -1.583235   , -0.0145804537, 0.000131950772, 918.569458  , 29.7618542  , 820.344849  , 2.78        , 3           , 255         , 0           , 0
-0.14648293 , 9.797501    , 0.130418971 , -2.436657E-05, 4.91009268E-05, -0.000540932233, -1.58323514 , -0.0145858685, 0.000131526511, 918.569458  , 29.7618542  , 820.345459  , 2.79        , 3           , 255         , 0           , 0
-0.134157866, 9.790857    , 0.122273065 , -0.000133207766, -0.000396411458, -0.0002501246, -1.58323646 , -0.0145883188, 0.000135522336, 918.569458  , 29.7618542  , 820.346069  , 2.8         , 3           , 255         , 0           , 0
-0.139197662, 9.784987    , 0.135298684 , 5.534191E-05, 6.523685E-05, -0.000334889774, -1.58325207 , -0.0145940706, 0.000135146969, 918.569458  , 29.7618542  , 820.281     , 2.81        , 3           , 255         , 0           , 0
-0.1381251  , 9.800803    , 0.128268078 , -0.000516816857, -9.044216E-05, 7.603194E-06, -1.58325732 , -0.0145939821, 0.000136049523, 918.569458  , 29.7618542  , 820.2812    , 2.82        , 3           , 255         , 0           , 0
-0.137359291, 9.805353    , 0.130561    , -0.0004142428, 0.000151823449, -1.51569329E-05, -1.58326137 , -0.0145941544, 0.000134533169, 918.4922    , 29.7617188  , 820.2814    , 2.83        , 3           , 255         , 0           , 0
-0.133415863, 9.794813    , 0.114809945 , -0.0004223317, 0.000540705165, -0.000583450659, -1.58326554 , -0.0146000544, 0.000129199863, 918.4922    , 29.7617188  , 820.281555  , 2.84        , 3           , 255         , 0           , 0
-0.146673217, 9.787041    , 0.119286463 , -0.000297002349, 0.000275550643, -0.0007706015, -1.58326852 , -0.0146077946, 0.000126541592, 918.4922    , 29.7617188  , 820.281738  , 2.85        , 3           , 255         , 0           , 0
-0.152191609, 9.79285     , 0.121189    , -0.0005813718, 0.000344598258, -0.000120812845, -1.58327436 , -0.0146090444, 0.000123111167, 918.4922    , 29.7617188  , 820.2819    , 2.86        , 3           , 255         , 0           , 0
-0.157455653, 9.79053     , 0.13435258  , -0.000361432816, -0.000126980623, 0.000145602768, -1.58327806 , -0.0146075757, 0.000124362516, 918.4922    , 29.7617188  , 820.2821    , 2.87        , 3           , 255         , 0           , 0
-0.14496401 , 9.796466    , 0.128090411 , -0.0006213179, -0.0003708627, -0.00051192235, -1.58328426 , -0.0146126468, 0.000128134809, 918.4922    , 29.7617188  , 820.2823    , 2.88        , 3           , 255         , 0           , 0
-0.1354529  , 9.79399     , 0.1252929   , -0.000545867952, -0.0001529512, -0.000350796035, -1.58328974 , -0.0146161355, 0.000129708453, 918.4922    , 29.7617188  , 820.2825    , 2.89        , 3           , 255         , 0           , 0
-0.1408126  , 9.787989    , 0.121652082 , -4.40703734E-05, -0.000168743863, -0.0006886619, -1.58329034 , -0.0146230012, 0.000131482811, 918.4922    , 29.7617188  , 820.2827    , 2.9         , 3           , 255         , 0           , 0
-0.147147492, 9.777666    , 0.1137869   , -4.75673369E-05, -5.8979087E-05, -0.0004086548, -1.58329749 , -0.0146262012, 0.000132222354, 918.4922    , 29.7617188  , 820.3344    , 2.91        , 3           , 255         , 0           , 0
-0.136611909, 9.786987    , 0.113891281 , 2.90576572E-05, 0.000286199 , -0.000454728841, -1.58329713 , -0.0146307843, 0.0001294174, 918.4922    , 29.7617188  , 820.334961  , 2.92        , 3           , 255         , 0           , 0
-0.129135   , 9.79392052  , 0.116952717 , -0.000120083409, -0.000468526327, -0.0003766903, -1.58329844 , -0.0146344891, 0.000134149028, 918.550964  , 29.7624645  , 820.3355    , 2.93        , 3           , 255         , 0           , 0
-0.136147946, 9.792828    , 0.129658714 , -0.000485836877, -0.000201938616, 0.000174378743, -1.58330333 , -0.0146327205, 0.000136146467, 918.550964  , 29.7624645  , 820.33606   , 2.94        , 3           , 255         , 0           , 0
-0.138505965, 9.79436     , 0.115936615 , -0.000164079218, -5.0127448E-05, -0.000271491124, -1.583305   , -0.0146354279, 0.0001366825, 918.550964  , 29.7624645  , 820.3366    , 2.95        , 3           , 255         , 0           , 0
-0.141124457, 9.786554    , 0.1230806   , 9.028592E-05, 0.00010902324, -0.000427998777, -1.58330417 , -0.0146397213, 0.000135645838, 918.550964  , 29.7624645  , 820.337158  , 2.96        , 3           , 255         , 0           , 0
-0.144657642, 9.78525     , 0.114725411 , -0.0003217589, -5.36635634E-05, -0.0006308733, -1.58330739 , -0.0146460216, 0.0001362606, 918.550964  , 29.7624645  , 820.3377    , 2.97        , 3           , 255         , 0           , 0
-0.147642538, 9.783979    , 0.125172645 , 0.0003992007, -0.00028448354, -2.16632616E-05, -1.58330333 , -0.0146462023, 0.000139107491, 918.550964  , 29.7624645  , 820.338257  , 2.98        , 3           , 255         , 0           , 0
-0.144255847, 9.78541     , 0.126913711 , -0.000151987624, -4.085037E-05, 0.000103281352, -1.58330488 , -0.0146451667, 0.000139503318, 918.550964  , 29.7624645  , 820.3388    , 2.99        , 3           , 255         , 0           , 0
-0.13877669 , 9.799707    , 0.127672821 , -0.000386052474, 5.0071365E-05, 0.0004461818, -1.5833087  , -0.01464071 , 0.00013894774, 918.550964  , 29.7624645  , 820.339355  , 3           , 3           , 0           , 8.473237    , 300
-0.133376449, 9.792937    , 0.122925743 , -0.0004921124, -0.000423091959, -0.000275486644, -1.58330929 , -0.0146359252, 0.000143149373, 918.550964  , 29.7624645  , 820.300354  , 3.01        , 3           , 1           , 0           , 0
-0.130390361, 9.78962     , 0.119696915 , -0.000288702984, 0.000344963657, -0.0004865038, -1.58331215 , -0.0146408323, 0.000139760872, 918.550964  , 29.7624645  , 820.300659  , 3.02        , 3           , 2           , 0           , 0
-0.142856255, 9.792017    , 0.115236595 , -0.0005437195, 0.000118202966, -0.000135632363, -1.58331752 , -0.0146422032, 0.000138595191, 918.553     , 29.7643642  , 820.300964  , 3.03        , 3           , 3           , 0           , 0
-0.14049916 , 9.79184151  , 0.128812864 , -0.000268284435, -9.654698E-05, 0.0005384962, -1.58332014 , -0.0146368062, 0.000139493088, 918.553     , 29.7643642  , 820.3013    , 3.04        , 3           , 4           , 0           , 0
-0.13713944 , 9.797941    , 0.127980947 , 0.000218054527, 0.000207927136, -4.27062041E-05, -1.583318   , -0.0146372588, 0.000137419745, 918.553     , 29.7643642  , 820.3016    , 3.05        , 3           , 5           , 0           , 0
-0.133819565, 9.796633    , 0.124774    , 6.174618E-05, -0.0006241142, -2.91357355E-05, -1.5833174  , -0.0146374712, 0.000143664 , 918.553     , 29.7643642  , 820.3019    , 3.06        , 3           , 6           , 0           , 0
-0.152955681, 9.789156    , 0.127277762 , 0.000108463326, -0.000182384363, -3.93796072E-05, -1.58331633 , -0.0146378428, 0.000145492842, 918.553     , 29.7643642  , 820.3022    , 3.07        , 3           , 7           , 0           , 0
-0.149709642, 9.793045    , 0.117652833 , -0.000291828357, 0.0004405556, -0.000307819661, -1.58331919 , -0.0146409767, 0.000141125871, 918.553     , 29.7643642  , 820.3025    , 3.08        , 3           , 8           , 5           , 5
-0.124182604, 9.795979    , 0.113024019 , -0.000428253552, 0.0003013619, -0.000181291311, -1.58332348 , -0.0146428254, 0.000138134608, 918.553     , 29.7643642  , 820.3028    , 3.09        , 3           , 9           , 5           , 0.1
-0.132577375, 9.782905    , 0.121100619 , 0.000211282764, 0.0003400403, 0.0003286703, -1.58332133 , -0.0146395816, 0.000134693939, 918.553     , 29.7643642  , 820.3031    , 3.1         , 3           , 10          , 0.1         , 0.1
-0.144731387, 9.784229    , 0.122323014 , 0.000387472275, -0.00036261123, 0.000190947714, -1.583316   , -0.0146269966, 0.000138274743, 918.553     , 29.7643642  , 820.266541  , 3.11        , 3           , 11          , 0.00725741731, 0.007257414
-0.145754069, 9.7885      , 0.115385219 , -0.000332471129, -0.000128611486, 0.000221790455, -1.58331931 , -0.0146247633, 0.000139533571, 918.553     , 29.7643642  , 820.2666    , 3.12        , 3           , 12          , 0.174645633 , 0
-0.147139579, 9.786488    , 0.126049876 , 0.000210973187, 0.000475082517, 0.0006989246, -1.58331716 , -0.0146178352, 0.000134694812, 918.526     , 29.76484    , 820.266663  , 3.13        , 3           , 13          , 0           , 0
-0.149089247, 9.785552    , 0.119196534 , 0.0002612449, 0.0004902238, 0.000611628057, -1.58331454 , -0.0146117769, 0.0001297159, 918.526     , 29.76484    , 820.2667    , 3.14        , 3           , 14          , 0.000149058978, -0.0004606019
-0.1538063  , 9.79043     , 0.121764041 , -0.000205675256, 0.000162573735, -0.0004345676, -1.58331656 , -0.0146161439, 0.0001281446, 918.526     , 29.76484    , 820.2668    , 3.15        , 3           , 15          , 0           , -8.776402E-05
-0.156363428, 9.797516    , 0.11870072  , 8.7985085E-05, 0.000496987 , -0.00080706377, -1.58331573 , -0.0146242762, 0.000123276055, 918.526     , 29.76484    , 820.2669    , 3.16        , 3           , 16          , 0           , 1.401298E-45
-0.138497159, 9.790972    , 0.118921079 , 0.000183350479, -3.293369E-05, 0.000114134426, -1.58331382 , -0.0146231316, 0.000123591351, 918.526     , 29.76484    , 820.267     , 3.17        , 3           , 20          , 0           , 0
-0.136065915, 9.785182    , 0.123919785 , -0.000418778625, 0.000426639279, -0.000126103638, -1.583318   , -0.0146244466, 0.000119341734, 918.526     , 29.76484    , 820.267151  , 3.18        , 3           , 21          , 0           , 0
-0.142864272, 9.79318     , 0.1272422   , -0.000161183634, 0.000100512 , -0.000501423, -1.58331966 , -0.014629472, 0.000118399606, 918.526     , 29.76484    , 820.2673    , 3.19        , 3           , 22          , 0           , 0
-0.144416839, 9.789171    , 0.115067385 , -0.000200524461, 7.355862E-05, -0.0005066712, -1.58332169 , -0.0146345459, 0.0001177276, 918.526     , 29.76484    , 820.2674    , 3.2         , 3           , 40          , 0           , 0
-0.145977974, 9.793742    , 0.123479292 , -0.0003601135, 0.000225930635, -0.000198389243, -1.58332121 , -0.0146431923, 0.00011543258, 918.526     , 29.76484    , 820.2736    , 3.21        , 3           , 41          , 0           , 0
-0.136757955, 9.790796    , 0.12315277  , -0.000433969253, -0.000170522922, 4.579786E-06, -1.58332562 , -0.0146431271, 0.000117137541, 918.526     , 29.76484    , 820.273743  , 3.22        , 3           , 42          , 0           , 0
-0.146033272, 9.788722    , 0.115274906 , -1.2428005E-05, -0.000288390642, -4.516718E-05, -1.58332574 , -0.0146435415, 0.000120027289, 918.5226    , 29.766468   , 820.273865  , 3.23        , 3           , 255         , 0           , 0
-0.154056773, 9.795364    , 0.126568735 , -0.000244329829, -0.0002941213, 0.000203374482, -1.58332825 , -0.0146414693, 0.000122942642, 918.5226    , 29.766468   , 820.274     , 3.24        , 3           , 255         , 0           , 0
-0.1470413  , 9.793577    , 0.12190225  , 0.000232063292, -0.0004847132, -0.00046721712, -1.58332586 , -0.0146460813, 0.00012784799, 918.5226    , 29.766468   , 820.2741    , 3.25        , 3           , 255         , 0           , 0
-0.152302474, 9.790827    , 0.128635973 , 0.000384124636, -0.00028503724, -0.000433848472, -1.583322   , -0.014650383, 0.000130752625, 918.5226    , 29.766468   , 820.274231  , 3.26        , 3           , 255         , 0           , 0
-0.149678022, 9.780756    , 0.128329813 , -5.735906E-05, -8.521983E-05, 0.000110224209, -1.58332264 , -0.014649271, 0.000131590452, 918.5226    , 29.766468   , 820.274353  , 3.27        , 3           , 255         , 0           , 0
-0.14592278 , 9.792052    , 0.122955382 , 4.199696E-05, -0.0006293006, 4.40995973E-05, -1.58332217 , -0.0146487514, 0.000137877549, 918.5226    , 29.766468   , 820.2745    , 3.28        , 3           , 255         , 0           , 0
-0.135683939, 9.793416    , 0.106897317 , 0.000198429479, -0.0006766872, 0.000832096033, -1.58332026 , -0.0146403462, 0.000144539066, 918.5226    , 29.766468   , 820.2746    , 3.29        , 3           , 255         , 0           , 0
-0.138218582, 9.797531    , 0.119955912 , 0.000153280649, -0.000214973727, 0.000954898132, -1.58331871 , -0.01463077 , 0.000146568622, 918.5226    , 29.766468   , 820.2748    , 3.3         , 3           , 255         , 0           , 0
-0.143523023, 9.79493     , 0.11671219  , -5.4221302E-05, -0.000252817961, -0.0005510623, -1.5833174  , -0.0146395508, 0.000149139363, 918.5226    , 29.766468   , 820.285034  , 3.31        , 3           , 255         , 0           , 0
-0.150797442, 9.796025    , 0.114242874 , -0.000105956591, -0.000197581336, -0.0003301938, -1.58331847 , -0.0146428291, 0.000151155429, 918.5226    , 29.766468   , 820.2853    , 3.32        , 3           , 255         , 0           , 0
-0.148425609, 9.796241    , 0.118808247 , 0.0002463276, -0.000342134474, -0.00060709496, -1.583316   , -0.0146488575, 0.000154651992, 918.509766  , 29.7636185  , 820.2855    , 3.33        , 3           , 255         , 0           , 0
-0.145003825, 9.79357     , 0.126523733 , 0.0007390666, 7.325169E-05, -0.000486092962, -1.58330846 , -0.0146537265, 0.00015398  , 918.509766  , 29.7636185  , 820.285767  , 3.34        , 3           , 255         , 0           , 0
-0.13914834 , 9.797214    , 0.1197532   , 0.0001272286, 7.371709E-07, -0.000494845561, -1.58330727 , -0.0146586737, 0.000154034962, 918.509766  , 29.7636185  , 820.286     , 3.35        , 3           , 255         , 0           , 0
-0.131106719, 9.792715    , 0.123699985 , -0.000382709957, 9.470177E-05, 0.000125346 , -1.58331108 , -0.0146574322, 0.00015307279, 918.509766  , 29.7636185  , 820.286255  , 3.36        , 3           , 255         , 0           , 0
-0.136799648, 9.783964    , 0.127672419 , -0.0001465907, -0.000131830253, -0.000129239343, -1.58331263 , -0.0146587081, 0.00015440752, 918.509766  , 29.7636185  , 820.2865    , 3.37        , 3           , 255         , 0           , 0
-0.14354    , 9.780144    , 0.129855365 , 0.000141878132, -0.00019324405, -0.000313481258, -1.58331132 , -0.0146618187, 0.0001563803, 918.509766  , 29.7636185  , 820.286743  , 3.38        , 3           , 255         , 0           , 0
-0.139718086, 9.786195    , 0.13552545  , -0.000202021474, -3.5195E-05 , -0.000905010733, -1.58331335 , -0.0146708637, 0.000156845548, 918.509766  , 29.7636185  , 820.287     , 3.39        , 3           , 255         , 0           , 0
-0.143317431, 9.793749    , 0.139545    , -0.0002994763, -0.000109562912, -0.000444687117, -1.58331633 , -0.014675295, 0.000157996808, 918.509766  , 29.7636185  , 820.287231  , 3.4         , 3           , 255         , 0           , 0
-0.142523289, 9.790295    , 0.129335    , -9.10348244E-05, 0.000161298434, -0.000146622144, -1.58332229 , -0.0146741578, 0.000156475318, 918.509766  , 29.7636185  , 820.3141    , 3.41        , 3           , 255         , 0           , 0
-0.142814085, 9.803014    , 0.126686454 , -3.25437068E-05, 7.55141955E-05, -2.14376632E-05, -1.58332264 , -0.0146743814, 0.0001557232, 918.509766  , 29.7636185  , 820.3145    , 3.42        , 3           , 255         , 0           , 0
-0.143633813, 9.796772    , 0.124854662 , 0.0003626424, -0.000259141962, 0.000144756734, -1.583319   , -0.0146729024, 0.000158295778, 918.5624    , 29.76416    , 820.314941  , 3.43        , 3           , 255         , 0           , 0
-0.1466455  , 9.792475    , 0.11639905  , 0.000551488134, 0.000235117826, 0.000390886678, -1.58331335 , -0.0146690225, 0.000155895978, 918.5624    , 29.76416    , 820.315369  , 3.44        , 3           , 255         , 0           , 0
-0.143402666, 9.790036    , 0.11943312  , 2.644796E-05, -0.000352376082, -0.000236752, -1.58331311 , -0.0146713452, 0.000159447955, 918.5624    , 29.76416    , 820.3158    , 3.45        , 3           , 255         , 0           , 0
-0.140729427, 9.789131    , 0.117900923 , 0.000271766272, 0.000326880778, -0.0003793711, -1.58331037 , -0.0146751814, 0.000156227092, 918.5624    , 29.76416    , 820.3162    , 3.46        , 3           , 255         , 0           , 0
-0.137317762, 9.798973    , 0.123691365 , -5.84129375E-05, 0.000565839931, -0.000399900251, -1.58331084 , -0.0146792494, 0.000150618536, 918.5624    , 29.76416    , 820.31665   , 3.47        , 3           , 255         , 0           , 0
-0.1446705  , 9.796858    , 0.119060241 , 5.20517642E-05, 6.91726455E-05, -6.89605076E-06, -1.58331025 , -0.0146793276, 0.000149927888, 918.5624    , 29.76416    , 820.3171    , 3.48        , 3           , 255         , 0           , 0
-0.133564547, 9.791376    , 0.114227191 , 0.000241242946, -0.00028377847, -0.000269142038, -1.583308   , -0.0146819837, 0.000152799475, 918.5624    , 29.76416    , 820.3175    , 3.49        , 3           , 255         , 0           , 0
-0.136923462, 9.78638649  , 0.108056448 , -0.00022327053, -0.000381664024, -0.000541593065, -1.58331025 , -0.014687351, 0.000156683047, 918.5624    , 29.76416    , 820.317932  , 3.5         , 3           , 255         , 0           , 0
-0.1434451  , 9.790075    , 0.109789886 , -0.000415101269, -0.000257998443, -0.000687658263, -1.58331013 , -0.0146902176, 0.000159287782, 918.5624    , 29.76416    , 820.2652    , 3.51        , 3           , 255         , 0           , 0
-0.142182678, 9.794149    , 0.1173947   , 7.217267E-05, 0.000276140519, 0.000322956737, -1.58330941 , -0.0146870231, 0.000156486058, 918.5624    , 29.76416    , 820.265259  , 3.52        , 3           , 255         , 0           , 0
-0.1410627  , 9.794536    , 0.119362257 , -0.000286295719, 0.0002577552, -0.0009637928, -1.58331227 , -0.0146966893, 0.000154029462, 918.515747  , 29.7624645  , 820.2653    , 3.53        , 3           , 255         , 0           , 0
-0.140849158, 9.794322    , 0.1154779   , -0.00016102627, 0.000315654266, -0.000170408719, -1.58331382 , -0.0146984346, 0.000150893815, 918.515747  , 29.7624645  , 820.2654    , 3.54        , 3           , 255         , 0           , 0
-0.139653131, 9.790155    , 0.117342912 , -0.000172647065, 0.00025869417, 0.0005691611, -1.58331549 , -0.0146927759, 0.000148235064, 918.515747  , 29.7624645  , 820.2655    , 3.55        , 3           , 255         , 0           , 0
-0.135244161, 9.794223    , 0.112007596 , -0.00027072904, -0.000171829684, 0.000236313848, -1.58331823 , -0.0146903908, 0.00014992326, 918.515747  , 29.7624645  , 820.2656    , 3.56        , 3           , 255         , 0           , 0
-0.1456487  , 9.796182    , 0.1217555   , -0.000100497135, -9.655117E-05, -0.000471794337, -1.58331919 , -0.0146950968, 0.000150948763, 918.515747  , 29.7624645  , 820.265747  , 3.57        , 3           , 255         , 0           , 0
-0.144046828, 9.800104    , 0.131310135 , 0.000122305879, -0.0005713983, -0.000468900544, -1.58331811 , -0.0146997143, 0.0001567208, 918.515747  , 29.7624645  , 820.265869  , 3.58        , 3           , 255         , 0           , 0
-0.144327953, 9.798727    , 0.122612178 , -0.000118715579, 4.827464E-05, -0.000213414285, -1.58331931 , -0.0147018554, 0.0001562644, 918.515747  , 29.7624645  , 820.266     , 3.59        , 3           , 255         , 0           , 0
-0.143935755, 9.798596    , 0.123335578 , -0.0009333737, 1.81721407E-06, 0.000156369177, -1.58332872 , -0.01470029 , 0.000156226684, 918.515747  , 29.7624645  , 820.2661    , 3.6         , 3           , 255         , 0           , 0
-0.139984965, 9.801989    , 0.120508417 , -0.000580766355, -4.4205517E-06, 0.000961181242, -1.5833292  , -0.0146879219, 0.000156074864, 918.515747  , 29.7624645  , 820.287231  , 3.61        , 3           , 255         , 0           , 0
-0.14120093 , 9.805864    , 0.133098692 , -0.000704312, 7.69386243E-05, 0.000181959273, -1.58333635 , -0.0146861123, 0.000155283138, 918.515747  , 29.7624645  , 820.2875    , 3.62        , 3           , 255         , 0           , 0
-0.1424144  , 9.803933    , 0.123101257 , 0.000221597322, -9.508949E-06, -0.000341476349, -1.58333409 , -0.0146895247, 0.000155420537, 918.5444    , 29.76545    , 820.2877    , 3.63        , 3           , 255         , 0           , 0
-0.139550433, 9.804884    , 0.131383091 , -0.000162205368, -0.000759063754, -0.000176507689, -1.58333588 , -0.0146911936, 0.000163033052, 918.5444    , 29.76545    , 820.287964  , 3.64        , 3           , 255         , 0           , 0
-0.1300791  , 9.795387    , 0.126304254 , 0.000326885754, -0.00033293452, -0.0003371626, -1.58333254 , -0.0146945259, 0.0001664048, 918.5444    , 29.76545    , 820.2882    , 3.65        , 3           , 255         , 0           , 0
-0.144751981, 9.803929    , 0.132453248 , 0.0006271135, 0.000297093764, -0.000136138842, -1.58332634 , -0.0146959238, 0.000163451259, 918.5444    , 29.76545    , 820.288452  , 3.66        , 3           , 255         , 0           , 0
-0.154763848, 9.80365     , 0.120177306 , 0.000633251737, 6.435858E-05, 0.000389531924, -1.58332    , -0.0146920383, 0.000162759665, 918.5444    , 29.76545    , 820.2887    , 3.67        , 3           , 255         , 0           , 0
-0.14778623 , 9.790479    , 0.12832664  , 0.000278624153, -0.00025899426, -0.0001320942, -1.58331728 , -0.0146933254, 0.0001653658, 918.5444    , 29.76545    , 820.28894   , 3.68        , 3           , 255         , 0           , 0
-0.150554508, 9.787166    , 0.128289551 , 0.000293402758, -6.14399E-05, -0.000285379676, -1.5833143  , -0.01469617 , 0.000166015932, 918.5444    , 29.76545    , 820.2892    , 3.69        , 3           , 255         , 0           , 0
-0.142571181, 9.789375    , 0.124836668 , 0.000280630076, -0.000223753013, -2.72477482E-05, -1.58331144 , -0.0146964137, 0.000168256942, 918.5444    , 29.76545    , 820.2894    , 3.7         , 3           , 255         , 0           , 0
-0.137503147, 9.791203    , 0.1150171   , -7.75828E-05, 0.0003739723, -0.000368362584, -1.5833168  , -0.0146994116, 0.000164631841, 918.5444    , 29.76545    , 820.2667    , 3.71        , 3           , 255         , 0           , 0
-0.1428827  , 9.78953552  , 0.119152054 , -7.20759344E-05, 0.000175155088, 0.000146795035, -1.58331752 , -0.0146979662, 0.000162861674, 918.5444    , 29.76545    , 820.266846  , 3.72        , 3           , 255         , 0           , 0
-0.132758409, 9.794157    , 0.117482565 , -0.0007954237, -0.000828475459, -3.473257E-05, -1.58332551 , -0.0146982074, 0.000171149964, 918.528259  , 29.7668743  , 820.266968  , 3.73        , 3           , 255         , 0           , 0
-0.140209809, 9.793722    , 0.118355058 , -0.000598037848, -0.00057489227, -0.000414213369, -1.58333147 , -0.0147022782, 0.000176950867, 918.528259  , 29.7668743  , 820.2671    , 3.74        , 3           , 255         , 0           , 0
-0.144097567, 9.791624    , 0.124343477 , 0.000162074328, -0.000116386771, 0.000732484157, -1.5833298  , -0.0146949422, 0.000178021975, 918.528259  , 29.7668743  , 820.2672    , 3.75        , 3           , 255         , 0           , 0
-0.142123818, 9.786845    , 0.117379405 , 0.000338739075, -0.000322232285, 0.00112564478, -1.58332646 , -0.0146836461, 0.000181103576, 918.528259  , 29.7668743  , 820.267334  , 3.76        , 3           , 255         , 0           , 0
-0.1398683  , 9.799067    , 0.122081436 , 0.0007215947, -0.0007461844, 0.000570919365, -1.58331931 , -0.0146778487, 0.000188493432, 918.528259  , 29.7668743  , 820.267456  , 3.77        , 3           , 255         , 0           , 0
-0.143041223, 9.791811    , 0.115571082 , -0.000216961314, 0.000183854921, -0.0002594389, -1.58332145 , -0.0146804638, 0.000186687437, 918.528259  , 29.7668743  , 820.2676    , 3.78        , 3           , 255         , 0           , 0
-0.146173522, 9.792395    , 0.119333461 , -0.0005606356, 0.000213335472, 0.0001485345, -1.58332694 , -0.0146790054, 0.000184535384, 918.528259  , 29.7668743  , 820.2677    , 3.79        , 3           , 255         , 0           , 0
-0.14546378 , 9.790515    , 0.1203869   , -0.000370485533, 6.188644E-05, 7.676351E-05, -1.58333075 , -0.0146782454, 0.000183907119, 918.528259  , 29.7668743  , 820.2678    , 3.8         , 3           , 255         , 0           , 0
-0.148017362, 9.790835    , 0.117588267 , -0.000592507, -0.0005188525, 0.000380501559, -1.58333    , -0.0146700395, 0.000188951235, 918.528259  , 29.7668743  , 820.2712    , 3.81        , 3           , 255         , 0           , 0
-0.147718787, 9.797059    , 0.119142629 , 1.07945962E-05, -0.000254316634, -0.0003987911, -1.58332992 , -0.0146739939, 0.000191543848, 918.528259  , 29.7668743  , 820.271362  , 3.82        , 3           , 255         , 0           , 0
-0.144545823, 9.799375    , 0.124825165 , 5.57262974E-05, 0.000347128953, -0.00085337105, -1.58332932 , -0.0146825705, 0.000188179576, 918.5309    , 29.7652454  , 820.271545  , 3.83        , 3           , 255         , 0           , 0
