Acc X       , Acc Y       , Acc Z       , Gyro X      , Gyro Y      , Gyro Z      , Euler X     , Euler Y     , Euler Z     , Pres X      , Pres Y      , Pres Z      , Time        , Status      , LowRate X   , LowRate Y   , LowRate Z    
-0.141260058, -0.14116773 , 9.787524    , 0           , 0           , 0           , 3.12717032  , -0.0144301625, 0           , 918.1544    , 32.0127144  , 823.655945  , 0           , 2           , 0           , 5.54323149  , 0
-0.140751258, -0.149033576, 9.801003    , 0.0008129934, 3.6497775E-05, 0.000130206186, 3.12717843  , -0.0144309169, -1.29677619E-06, 918.1544    , 32.0127144  , 823.655945  , 0.01        , 3           , 1           , 0           , 0
-0.1436102  , -0.148372978, 9.795048    , 0.00052083825, 0.000203101255, -0.0006651593, 3.12718368  , -0.0144328512, 5.383926E-06, 918.1544    , 32.0127144  , 823.655945  , 0.02        , 3           , 2           , 0           , 0
-0.1347896  , -0.138156712, 9.793318    , 8.631579E-05, 0.0003104193, -0.000174456058, 3.12718439  , -0.0144359283, 7.173161E-06, 918.143555  , 31.5845661  , 823.655945  , 0.03        , 3           , 3           , 0           , 0
-0.137404174, -0.136678129, 9.796134    , -0.0004471033, 0.0005991807, -0.000447111961, 3.12717986  , -0.0144418553, 1.17305181E-05, 918.143555  , 31.5845661  , 823.655945  , 0.04        , 3           , 4           , 0           , 0
-0.140517756, -0.14051646 , 9.799181    , -1.0947173E-05, 0.0002598666, 0.000601519831, 3.12717986  , -0.0144445412, 5.75292142E-06, 918.143555  , 31.5845661  , 823.655945  , 0.05        , 3           , 5           , 0           , 0
-0.139472619, -0.148046836, 9.792065    , 0.0004904779, 0.000376996846, -9.110925E-05, 3.12718487  , -0.0144482981, 6.71832368E-06, 918.143555  , 31.5845661  , 823.655945  , 0.06        , 3           , 6           , 0           , 0
-0.1400375  , -0.142857119, 9.790014    , 0.000922705163, 0.0001936577, -0.000108126478, 3.127194    , -0.0144502176, 7.827449E-06, 918.143555  , 31.5845661  , 823.655945  , 0.07        , 3           , 7           , 0           , 0
-0.144992635, -0.136996984, 9.794202    , 0.000432042929, 0.000405739236, -0.000440034637, 3.12719822  , -0.0144542092, 1.228609E-05, 918.143555  , 31.5845661  , 823.655945  , 0.08        , 3           , 8           , 5           , 5
-0.1429622  , -0.141349286, 9.78768349  , -0.000220143585, -6.292947E-05, -0.0009333392, 3.12719584  , -0.0144534474, 2.1610198E-05, 918.143555  , 31.5845661  , 823.655945  , 0.09        , 3           , 9           , 5           , 0.1
-0.143305391, -0.134610876, 9.800426    , -0.00044958794, -0.000239171612, -0.0004430854, 3.12719131  , -0.0144509915, 2.60065E-05 , 918.143555  , 31.5845661  , 823.655945  , 0.1         , 3           , 10          , 0.1         , 0.1
-0.1471983  , -0.131225869, 9.79774952  , -0.000496647845, 0.0001466934, -0.000161645468, 3.12718463  , -0.0144499522, 2.76682476E-05, 918.143555  , 31.5845661  , 823.753845  , 0.11        , 3           , 11          , 0.0109544508, 0.0109544508
-0.140437692, -0.139016256, 9.801748    , 0.00040498763, 0.00047538738, 0.0004934827, 3.127189    , -0.0144547755, 2.28020162E-05, 918.143555  , 31.5845661  , 823.753845  , 0.12        , 3           , 12          , 0.174642488 , 0
-0.142959133, -0.1455088  , 9.803264    , 0.0004878338, 7.225975E-05, -3.8643313E-05, 3.12719369  , -0.0144554926, 2.31988524E-05, 918.0971    , 31.6226921  , 823.753845  , 0.13        , 3           , 13          , 0           , 0
-0.143113449, -0.136789843, 9.802503    , 0.0004164747, 6.763142E-05, -0.0003969503, 3.12719774  , -0.0144561119, 2.71780045E-05, 918.0971    , 31.6226921  , 823.753845  , 0.14        , 3           , 14          , -0.000577212952, -0.000614837743
-0.139043227, -0.143755943, 9.793559    , -4.2892585E-05, 0.0002962462, -0.000187793514, 3.12719727  , -0.0144590465, 2.909854E-05, 918.0971    , 31.6226921  , 823.7539    , 0.15        , 3           , 15          , 0           , -1.88854319E-05
-0.139148265, -0.146662757, 9.788146    , -0.000261087844, -0.0001468155, -0.000184974415, 3.12719464  , -0.0144575518, 3.09270945E-05, 918.0971    , 31.6226921  , 823.753967  , 0.16        , 3           , 16          , 0           , 1.401298E-45
-0.152884871, -0.152283981, 9.794635    , -3.123813E-05, 0.000212555286, 0.000227311975, 3.1271944   , -0.0144597106, 2.86846353E-05, 918.0971    , 31.6226921  , 823.754     , 0.17        , 3           , 20          , 0           , 0
-0.153054878, -0.157925129, 9.807611    , 8.615933E-05, 0.0003460629, 0.000238999768, 3.12719536  , -0.0144632049, 2.63445145E-05, 918.0971    , 31.6226921  , 823.7541    , 0.18        , 3           , 21          , 0           , 0
-0.13818036 , -0.154368788, 9.802416    , -0.000144960883, 0.000179198571, 0.000297096325, 3.127194    , -0.0144650387, 2.339942E-05, 918.0971    , 31.6226921  , 823.75415   , 0.19        , 3           , 22          , 0           , 0
-0.134980455, -0.148278981, 9.789545    , -3.977574E-05, -6.48124842E-06, 5.498487E-05, 3.12719345  , -0.0144649819, 2.28486588E-05, 918.0971    , 31.6226921  , 823.7542    , 0.2         , 3           , 40          , 0           , 0
-0.139233992, -0.148322716, 9.790782    , -0.000118484139, 9.058014E-05, 6.627431E-05, 3.12717962  , -0.0144698927, 2.238399E-05, 918.0971    , 31.6226921  , 823.964661  , 0.21        , 3           , 41          , 0           , 0
-0.13916266 , -0.152628154, 9.796347    , -0.000130189816, -0.000163663819, 0.0002622599, 3.12717819  , -0.0144682936, 1.97378613E-05, 918.0971    , 31.6226921  , 823.9647    , 0.22        , 3           , 42          , 0           , 0
-0.134617373, -0.153354511, 9.807742    , -0.0004424291, 0.000265947572, 0.0001768606, 3.127174    , -0.0144709786, 1.80076313E-05, 918.117737  , 31.6490154  , 823.9648    , 0.23        , 3           , 255         , 0           , 0
-0.1416563  , -0.153870314, 9.802501    , 9.603772E-05, -7.005542E-05, 0.000111001886, 3.12717485  , -0.0144702941, 1.6887534E-05, 918.117737  , 31.6490154  , 823.964844  , 0.24        , 3           , 255         , 0           , 0
-0.146212786, -0.1458879  , 9.787831    , 0.000190277 , -0.0006195696, 0.0008131746, 3.127177    , -0.0144642182, 8.666659E-06, 918.117737  , 31.6490154  , 823.9649    , 0.25        , 3           , 255         , 0           , 0
-0.1464348  , -0.139903486, 9.796819    , 0.0005320623, -0.000331385643, -4.720856E-05, 3.12718225  , -0.0144608971, 9.090972E-06, 918.117737  , 31.6490154  , 823.964966  , 0.26        , 3           , 255         , 0           , 0
-0.142092392, -0.141711652, 9.801132    , 3.083417E-05, -0.000516909233, 0.000241308371, 3.12718248  , -0.0144557636, 6.60346132E-06, 918.117737  , 31.6490154  , 823.965     , 0.27        , 3           , 255         , 0           , 0
-0.138115346, -0.1379355  , 9.801485    , 0.000246531243, 0.000350310816, -0.000200367154, 3.127185    , -0.0144592375, 8.65757E-06 , 918.117737  , 31.6490154  , 823.9651    , 0.28        , 3           , 255         , 0           , 0
-0.1488912  , -0.139160112, 9.795805    , -8.663919E-05, 8.098123E-05, -0.000583774759, 3.12718415  , -0.014459963, 1.4506837E-05, 918.117737  , 31.6490154  , 823.965149  , 0.29        , 3           , 255         , 0           , 0
-0.150557667, -0.140858039, 9.798128    , 0.000404682243, 0.000333583215, -0.000125598832, 3.127188    , -0.0144632794, 1.58108542E-05, 918.117737  , 31.6490154  , 823.9652    , 0.3         , 3           , 255         , 0           , 0
-0.135049224, -0.144010335, 9.792544    , 0.000781090232, 0.000308765826, -0.000122519574, 3.12718439  , -0.0144689409, 1.72458185E-05, 918.117737  , 31.6490154  , 823.972534  , 0.31        , 3           , 255         , 0           , 0
-0.134198338, -0.143130124, 9.798547    , 0.0002860878, 0.0004370979, 0.000372951617, 3.12718725  , -0.0144733656, 1.35793571E-05, 918.117737  , 31.6490154  , 823.9726    , 0.32        , 3           , 255         , 0           , 0
-0.1465284  , -0.146032   , 9.803012    , -0.000129231252, 0.000118876225, 0.00023671551, 3.127186    , -0.0144745884, 1.12293992E-05, 918.1093    , 31.6657047  , 823.972656  , 0.33        , 3           , 255         , 0           , 0
-0.147528559, -0.141597852, 9.79770851  , -1.4304067E-05, 0.000439887546, 0.000473420863, 3.127186    , -0.0144790541, 6.55867552E-06, 918.1093    , 31.6657047  , 823.9727    , 0.34        , 3           , 255         , 0           , 0
-0.144520745, -0.150993884, 9.794691    , 0.0003459938, -4.65211924E-05, 4.223086E-05, 3.1271894   , -0.014478595, 6.129662E-06, 918.1093    , 31.6657047  , 823.9728    , 0.35        , 3           , 255         , 0           , 0
-0.1404107  , -0.145104483, 9.789044    , 0.000921676 , 0.000304616929, -0.0002591205, 3.1271987   , -0.0144816022, 8.764659E-06, 918.1093    , 31.6657047  , 823.972839  , 0.36        , 3           , 255         , 0           , 0
-0.148644269, -0.14278765 , 9.79732     , 1.663901E-05, 0.000219203415, 0.000356094533, 3.127199    , -0.0144838458, 5.23535346E-06, 918.1093    , 31.6657047  , 823.9729    , 0.37        , 3           , 255         , 0           , 0
-0.133457422, -0.148181111, 9.79662     , 0.000109019311, -9.898987E-05, -0.000102776139, 3.1272      , -0.0144828409, 6.24884069E-06, 918.1093    , 31.6657047  , 823.972961  , 0.38        , 3           , 255         , 0           , 0
-0.130172253, -0.150270909, 9.80181     , 0.000224672985, -6.05545938E-05, 0.000130192144, 3.12720227  , -0.0144822542, 4.938245E-06, 918.1093    , 31.6657047  , 823.973     , 0.39        , 3           , 255         , 0           , 0
-0.134166524, -0.14572674 , 9.79592     , 0.000495327229, -0.0003143393, -0.000407878921, 3.127207    , -0.0144790551, 8.971715E-06, 918.1093    , 31.6657047  , 823.9731    , 0.4         , 3           , 255         , 0           , 0
-0.145960361, -0.1455625  , 9.79225349  , 2.91664619E-05, -0.000435881084, -0.0008718354, 3.127194    , -0.0144676547, 1.78211849E-05, 918.1093    , 31.6657047  , 823.996155  , 0.41        , 3           , 255         , 0           , 0
-0.141562864, -0.142873555, 9.797079    , -0.00048245053, -0.000276946, -0.000673216535, 3.127189    , -0.0144647872, 2.451331E-05, 918.1093    , 31.6657047  , 823.9962    , 0.42        , 3           , 255         , 0           , 0
-0.136982709, -0.130243629, 9.794789    , -0.000228600809, -0.000114525435, -0.000566205, 3.12718654  , -0.01446356 , 3.01587243E-05, 918.1338    , 31.67595    , 823.9963    , 0.43        , 3           , 255         , 0           , 0
-0.141658008, -0.146662161, 9.795529    , 0.000115667848, -1.37530733E-05, -0.00024150149, 3.12718773  , -0.0144633884, 3.257171E-05, 918.1338    , 31.67595    , 823.9964    , 0.44        , 3           , 255         , 0           , 0
-0.145616844, -0.151292682, 9.794878    , -0.000416279945, -0.000410043052, 0.000397066731, 3.12718368  , -0.0144593455, 2.85420465E-05, 918.1338    , 31.67595    , 823.9965    , 0.45        , 3           , 255         , 0           , 0
-0.144363984, -0.1446487  , 9.791527    , -4.0487037E-05, 6.610062E-06, -0.000221988928, 3.1271832   , -0.01445938 , 3.07628434E-05, 918.1338    , 31.67595    , 823.996643  , 0.46        , 3           , 255         , 0           , 0
-0.140344054, -0.13476187 , 9.802778    , -0.0005560584, -0.000196920009, -0.000271356635, 3.12717748  , -0.0144573729, 3.34479664E-05, 918.1338    , 31.67595    , 823.996765  , 0.47        , 3           , 255         , 0           , 0
-0.139631718, -0.1363297  , 9.797403    , 6.293779E-05, -0.000113807095, -0.000215756285, 3.12717819  , -0.0144562032, 3.55890625E-05, 918.1338    , 31.67595    , 823.9969    , 0.48        , 3           , 255         , 0           , 0
-0.145478129, -0.137346   , 9.800779    , -0.0003737319, 0.000227078854, -6.392393E-05, 3.12717438  , -0.0144584645, 3.626102E-05, 918.1338    , 31.67595    , 823.997     , 0.49        , 3           , 255         , 0           , 0
-0.134148121, -0.138145715, 9.797163    , 8.99079E-05 , 0.000143096346, -0.0001781056, 3.12717533  , -0.01445987 , 3.806267E-05, 918.1338    , 31.67595    , 823.997131  , 0.5         , 3           , 255         , 0           , 0
-0.140136585, -0.1379095  , 9.788389    , 0.000230426085, -0.000237034285, 0.000281714747, 3.12717867  , -0.0144572128, 3.51963936E-05, 918.1338    , 31.67595    , 823.9659    , 0.51        , 3           , 255         , 0           , 0
-0.14284423 , -0.138586238, 9.790773    , 0.000239319023, 1.92769221E-05, -0.0005672005, 3.127181    , -0.0144573236, 4.08710439E-05, 918.1338    , 31.67595    , 823.966     , 0.52        , 3           , 255         , 0           , 0
-0.141026273, -0.1405138  , 9.788962    , -8.860347E-05, -2.99765961E-05, 1.75421283E-05, 3.12718     , -0.0144570256, 4.06913059E-05, 918.1104    , 31.6826649  , 823.9661    , 0.53        , 3           , 255         , 0           , 0
-0.1437443  , -0.129361778, 9.796721    , 0.0002724428, -0.000187391532, 0.000188012986, 3.127183    , -0.01445518 , 3.87842156E-05, 918.1104    , 31.6826649  , 823.966248  , 0.54        , 3           , 255         , 0           , 0
-0.147569746, -0.131582081, 9.790279    , 0.000550059 , 0.0003268413, -0.0004566236, 3.12718821  , -0.0144583816, 4.339743E-05, 918.1104    , 31.6826649  , 823.9664    , 0.55        , 3           , 255         , 0           , 0
-0.148725927, -0.130406812, 9.796509    , -8.8148925E-05, -0.000163163291, 0.000170861575, 3.12718749  , -0.0144567741, 4.1665342E-05, 918.1104    , 31.6826649  , 823.9665    , 0.56        , 3           , 255         , 0           , 0
-0.143902242, -0.138676241, 9.806421    , -0.000134221162, -0.00017504982, 6.02262E-05 , 3.127186    , -0.0144550325, 4.10378743E-05, 918.1104    , 31.6826649  , 823.9666    , 0.57        , 3           , 255         , 0           , 0
-0.129018426, -0.141131982, 9.796419    , -0.000208549085, -0.0007444116, -0.000429695181, 3.127184    , -0.014447527, 4.5227458E-05, 918.1104    , 31.6826649  , 823.966736  , 0.58        , 3           , 255         , 0           , 0
-0.1369668  , -0.1471816  , 9.805829    , -0.0002798026, -3.769307E-05, -0.0008307753, 3.127181    , -0.0144470306, 5.352958E-05, 918.1104    , 31.6826649  , 823.966858  , 0.59        , 3           , 255         , 0           , 0
-0.142936021, -0.149082735, 9.796957    , -0.000486930017, 0.000168526312, -2.46107265E-05, 3.127176    , -0.0144487126, 5.37999622E-05, 918.1104    , 31.6826649  , 823.967     , 0.6         , 3           , 255         , 0           , 0
-0.138948336, -0.143162951, 9.794452    , -0.000353830575, -0.00013779453, 6.635346E-05, 3.12718034  , -0.014447473, 5.30043544E-05, 918.1104    , 31.6826649  , 823.982666  , 0.61        , 3           , 255         , 0           , 0
-0.141301662, -0.138526291, 9.798221    , -0.000166333222, -0.000150463718, -0.0007999527, 3.12717867  , -0.0144458534, 6.09820054E-05, 918.1104    , 31.6826649  , 823.9828    , 0.62        , 3           , 255         , 0           , 0
-0.1364542  , -0.144445613, 9.795595    , -0.000341435429, -0.000510269951, -0.0006887811, 3.127175    , -0.014440652, 6.779608E-05, 918.1528    , 31.6876183  , 823.9829    , 0.63        , 3           , 255         , 0           , 0
-0.148889929, -0.141186476, 9.795968    , 0.000209624035, -0.000504341966, -0.000110233595, 3.12717724  , -0.0144355968, 6.88256841E-05, 918.1528    , 31.6876183  , 823.983032  , 0.64        , 3           , 255         , 0           , 0
-0.143136472, -0.139666036, 9.800211    , -2.06214027E-05, -0.0001733888, -0.000535444065, 3.127177    , -0.0144337844, 7.41549957E-05, 918.1528    , 31.6876183  , 823.983154  , 0.65        , 3           , 255         , 0           , 0
-0.137938678, -0.136218   , 9.79805     , 0.000149983331, 0.000178353686, -0.000100260266, 3.12717843  , -0.0144355521, 7.51832849E-05, 918.1528    , 31.6876183  , 823.9833    , 0.66        , 3           , 255         , 0           , 0
-0.148768   , -0.138835624, 9.800598    , 0.000169553328, 0.000346144778, 0.000245934934, 3.12718     , -0.0144390492, 7.277389E-05, 918.1528    , 31.6876183  , 823.9834    , 0.67        , 3           , 255         , 0           , 0
-0.146115065, -0.14068678 , 9.798191    , 4.17444971E-05, -0.000195170986, 0.000211684746, 3.12718058  , -0.0144371279, 7.062897E-05, 918.1528    , 31.6876183  , 823.9835    , 0.68        , 3           , 255         , 0           , 0
-0.1333631  , -0.1465843  , 9.79746     , 0.000106304884, -0.000114065886, 0.000450598833, 3.12718177  , -0.0144360512, 6.610665E-05, 918.1528    , 31.6876183  , 823.983643  , 0.69        , 3           , 255         , 0           , 0
-0.137659311, -0.1378533  , 9.79799     , 0.000210385217, 0.000169309991, 0.000100523896, 3.127184    , -0.01443776 , 6.512583E-05, 918.1528    , 31.6876183  , 823.983765  , 0.7         , 3           , 255         , 0           , 0
-0.143216789, -0.135183066, 9.798567    , -0.000179008988, -1.27710518E-05, 0.000261846959, 3.12718344  , -0.0144371856, 6.248611E-05, 918.1528    , 31.6876183  , 823.9363    , 0.71        , 3           , 255         , 0           , 0
-0.139442444, -0.124050722, 9.800903    , -0.00056618813, 0.000457239425, -0.000195288478, 3.12717772  , -0.0144417295, 6.450485E-05, 918.1528    , 31.6876183  , 823.9364    , 0.72        , 3           , 255         , 0           , 0
-0.139362544, -0.124801219, 9.795495    , -0.0006267353, 0.00014930917, -0.0007547043, 3.12717128  , -0.0144431125, 7.20732351E-05, 918.136353  , 31.6945381  , 823.9365    , 0.73        , 3           , 255         , 0           , 0
-0.136916071, -0.12451414 , 9.792664    , -0.000281248125, 1.11910049E-06, -0.0002305118, 3.12716842  , -0.0144430911, 7.437845E-05, 918.136353  , 31.6945381  , 823.936646  , 0.74        , 3           , 255         , 0           , 0
-0.146451518, -0.127456158, 9.799725    , -0.000236320426, -0.000113660353, 9.962178E-05, 3.127166    , -0.0144419689, 7.336586E-05, 918.136353  , 31.6945381  , 823.936768  , 0.75        , 3           , 255         , 0           , 0
-0.148813084, -0.134297773, 9.790648    , 0.0004148926, 7.123547E-05, -0.000323161279, 3.12717032  , -0.0144426338, 7.660767E-05, 918.136353  , 31.6945381  , 823.9369    , 0.76        , 3           , 255         , 0           , 0
-0.144439146, -0.143719047, 9.791362    , -0.000378209748, -0.000305927359, -9.06906644E-05, 3.12716651  , -0.0144395623, 7.7470424E-05, 918.136353  , 31.6945381  , 823.937     , 0.77        , 3           , 255         , 0           , 0
-0.144440383, -0.133105934, 9.800228    , -0.000416819, -0.00031346496, 0.0004340358, 3.12716246  , -0.01443649 , 7.30849351E-05, 918.136353  , 31.6945381  , 823.937134  , 0.78        , 3           , 255         , 0           , 0
-0.141784191, -0.1332851  , 9.806966    , -0.000437627779, 0.0002970202, 0.000225483876, 3.127158    , -0.0144394925, 7.087302E-05, 918.136353  , 31.6945381  , 823.937256  , 0.79        , 3           , 255         , 0           , 0
-0.146053851, -0.140022531, 9.800515    , 0.000256138417, -8.523575E-05, 2.76594965E-05, 3.12716055  , -0.0144386441, 7.058413E-05, 918.136353  , 31.6945381  , 823.9374    , 0.8         , 3           , 255         , 0           , 0
-0.146842033, -0.139233857, 9.805145    , 7.904583E-05, -0.000210841827, -0.0006134666, 3.12718439  , -0.0144403288, 7.635545E-05, 918.136353  , 31.6945381  , 823.9214    , 0.81        , 3           , 255         , 0           , 0
-0.14259769 , -0.145666838, 9.799063    , -5.99441119E-05, 0.000165099773, -0.000699099153, 3.12718368  , -0.0144418795, 8.33700542E-05, 918.136353  , 31.6945381  , 823.9215    , 0.82        , 3           , 255         , 0           , 0
-0.156720489, -0.147618175, 9.792796    , 0.00022801396, 0.000225196622, -0.000124903789, 3.12718582  , -0.0144441128, 8.465152E-05, 918.1215    , 31.6962337  , 823.921631  , 0.83        , 3           , 255         , 0           , 0
-0.147853866, -0.146808669, 9.800561    , 1.97924674E-05, -8.677662E-05, -9.798315E-05, 3.127186    , -0.0144432308, 8.561883E-05, 918.1215    , 31.6962337  , 823.921753  , 0.84        , 3           , 255         , 0           , 0
-0.1305903  , -0.137331367, 9.800352    , 0.000309245836, 0.0002645809, -3.71235437E-05, 3.12718916  , -0.0144458711, 8.602816E-05, 918.1215    , 31.6962337  , 823.9219    , 0.85        , 3           , 255         , 0           , 0
-0.14053759 , -0.13637194 , 9.799395    , -0.000326267269, 7.054128E-06, 0.000308872521, 3.12718582  , -0.0144459866, 8.294053E-05, 918.1215    , 31.6962337  , 823.922     , 0.86        , 3           , 255         , 0           , 0
-0.148378849, -0.13922438 , 9.800039    , 0.000424800819, -0.0003913843, -0.0002234004, 3.12719     , -0.0144420415, 8.51181E-05 , 918.1215    , 31.6962337  , 823.9221    , 0.87        , 3           , 255         , 0           , 0
-0.148135364, -0.135437921, 9.793916    , -6.358005E-05, -0.000167910126, -0.000345660374, 3.1271894   , -0.0144403121, 8.855044E-05, 918.1215    , 31.6962337  , 823.922241  , 0.88        , 3           , 255         , 0           , 0
-0.133348078, -0.138612717, 9.789858    , 6.174343E-05, 0.000225890923, 7.145301E-05, 3.12719     , -0.0144425817, 8.786845E-05, 918.1215    , 31.6962337  , 823.922363  , 0.89        , 3           , 255         , 0           , 0
-0.1373412  , -0.139508516, 9.798563    , -5.16138971E-05, 2.41608359E-05, -0.00021669206, 3.12718964  , -0.0144427922, 9.003881E-05, 918.1215    , 31.6962337  , 823.9225    , 0.9         , 3           , 255         , 0           , 0
-0.139109761, -0.139505208, 9.804996    , 0.000658988545, 0.000370727532, 0.000363704981, 3.1271975   , -0.014450538, 8.643585E-05, 918.1215    , 31.6962337  , 823.926941  , 0.91        , 3           , 255         , 0           , 0
-0.1330207  , -0.136501461, 9.802366    , 6.380392E-05, 5.54535654E-05, -7.97661E-05, 3.12719822  , -0.0144510809, 8.72414748E-05, 918.1215    , 31.6962337  , 823.9271    , 0.92        , 3           , 255         , 0           , 0
-0.13124302 , -0.143405959, 9.798427    , -4.057173E-05, 3.46475863E-05, -0.000260615227, 3.12719774  , -0.0144513892, 8.985255E-05, 918.1386    , 31.6965733  , 823.9273    , 0.93        , 3           , 255         , 0           , 0
-0.147186041, -0.135714322, 9.801939    , -0.0003714359, 0.00017234456, 0.000126933708, 3.127194    , -0.01445313 , 8.860805E-05, 918.1386    , 31.6965733  , 823.9275    , 0.94        , 3           , 255         , 0           , 0
-0.143032223, -0.134698674, 9.798121    , -0.0005614155, 1.345051E-05, 0.000435624359, 3.12718844  , -0.0144533273, 8.425385E-05, 918.1386    , 31.6965733  , 823.9277    , 0.95        , 3           , 255         , 0           , 0
-0.135720789, -0.149952084, 9.798071    , -0.000365746964, 6.112369E-05, 0.0009671634, 3.12718487  , -0.0144540761, 7.459125E-05, 918.1386    , 31.6965733  , 823.927856  , 0.96        , 3           , 255         , 0           , 0
-0.135059029, -0.135969967, 9.805029    , 0.0003469562, -0.000109225744, 0.000404076272, 3.12718844  , -0.0144530442, 7.053486E-05, 918.1386    , 31.6965733  , 823.92804   , 0.97        , 3           , 255         , 0           , 0
-0.136214837, -0.138587981, 9.803206    , 0.000294098223, 0.00046273612, 0.000285710266, 3.12719154  , -0.014457711, 6.774446E-05, 918.1386    , 31.6965733  , 823.9282    , 0.98        , 3           , 255         , 0           , 0
-0.148258477, -0.1450688  , 9.795084    , -0.000292061479, -9.323814E-05, -0.00035589037, 3.12718844  , -0.0144567275, 7.12898545E-05, 918.1386    , 31.6965733  , 823.9284    , 0.99        , 3           , 255         , 0           , 0
-0.144371882, -0.147612244, 9.795348    , 7.00440141E-05, 0.0004091098, 0.000141273777, 3.12718916  , -0.0144608384, 6.99360753E-05, 918.1386    , 31.6965733  , 823.9286    , 1           , 3           , 0           , 6.54323626  , 100
-0.139202386, -0.142223477, 9.789587    , 0.0004377439, 0.000248534838, -0.000314262434, 3.1271944   , -0.014458376, 7.3100804E-05, 918.1386    , 31.6965733  , 823.913147  , 1.01        , 3           , 1           , 0           , 0
-0.13614063 , -0.138922229, 9.803095    , -4.2595726E-05, 0.000269194541, 0.000151828179, 3.12719417  , -0.0144610889, 7.162131E-05, 918.1386    , 31.6965733  , 823.913269  , 1.02        , 3           , 2           , 0           , 0
-0.14259012 , -0.145604163, 9.787079    , 0.0001212901, 0.000239833258, 0.000403428741, 3.12719536  , -0.0144635448, 6.762165E-05, 918.0976    , 31.7017956  , 823.9134    , 1.03        , 3           , 3           , 0           , 0
-0.14550826 , -0.146289289, 9.80208     , 0.000552225858, -0.00013988727, 0.000532656 , 3.12720084  , -0.0144622261, 6.227509E-05, 918.0976    , 31.7017956  , 823.9136    , 1.04        , 3           , 4           , 0           , 0
-0.138160065, -0.145079985, 9.804721    , 0.00030510308, 0.000233263883, 0.000176597212, 3.127204    , -0.0144645823, 6.05427267E-05, 918.0976    , 31.7017956  , 823.913757  , 1.05        , 3           , 5           , 0           , 0
-0.132153779, -0.142382354, 9.80616     , 0.000128683576, -5.177007E-05, -0.0006901084, 3.12720513  , -0.0144639658, 6.74362E-05 , 918.0976    , 31.7017956  , 823.91394   , 1.06        , 3           , 6           , 0           , 0
-0.1370709  , -0.141430721, 9.802311    , -0.00016978936, 0.000208004611, -0.000472906, 3.12720346  , -0.0144659774, 7.21950855E-05, 918.0976    , 31.7017956  , 823.9141    , 1.07        , 3           , 7           , 0           , 0
-0.13556996 , -0.142744526, 9.800186    , -0.000244064257, 0.00018850487, -0.000123827078, 3.127201    , -0.0144678447, 7.346043E-05, 918.0976    , 31.7017956  , 823.9143    , 1.08        , 3           , 8           , 5           , 5
-0.138303965, -0.137598842, 9.800427    , -0.0004697332, 0.000309063616, 6.097788E-05, 3.12719631  , -0.0144709423, 7.289515E-05, 918.0976    , 31.7017956  , 823.9145    , 1.09        , 3           , 9           , 5           , 0.1
-0.15113458 , -0.135992423, 9.791153    , -0.000166468031, -0.000103393686, -0.000150494263, 3.12719464  , -0.0144698862, 7.438517E-05, 918.0976    , 31.7017956  , 823.9147    , 1.1         , 3           , 10          , 0.1         , 0.1
-0.1400626  , -0.138482556, 9.795672    , -0.000275349419, -4.14298847E-06, -0.000228765435, 3.12719     , -0.014465047, 7.669812E-05, 918.0976    , 31.7017956  , 823.944763  , 1.11        , 3           , 11          , 0.009578948 , 0.009578948
-0.131826386, -0.132512167, 9.797429    , -0.0005170167, -0.000121876888, -0.000619767059, 3.12718487  , -0.0144637385, 8.28780758E-05, 918.0976    , 31.7017956  , 823.945     , 1.12        , 3           , 12          , 0.174642846 , 0
-0.130302832, -0.137619853, 9.796282    , 0.000107315369, 0.000361320068, 0.0007109753, 3.12718582  , -0.0144674545, 7.582056E-05, 918.0835    , 31.7039     , 823.945251  , 1.13        , 3           , 13          , 0           , 0
-0.138629764, -0.145373374, 9.802641    , 8.552341E-05, 0.0002486017, 0.0004268986, 3.12718678  , -0.0144700008, 7.158749E-05, 918.0835    , 31.7039     , 823.9455    , 1.14        , 3           , 14          , -0.0005772289, -0.000614831864
-0.1545544  , -0.145729512, 9.797142    , 0.000453568326, -7.945945E-05, -0.0001599424, 3.12719131  , -0.014469184, 7.317543E-05, 918.0835    , 31.7039     , 823.94574   , 1.15        , 3           , 15          , 0           , -1.88855774E-05
-0.150367692, -0.1398606  , 9.792425    , -0.000317972619, 0.00010392844, 0.000124478334, 3.12718821  , -0.014470241, 7.194564E-05, 918.0835    , 31.7039     , 823.946     , 1.16        , 3           , 16          , 0           , 1.401298E-45
-0.146692663, -0.138756365, 9.790449    , 0.00012916277, -0.000170875632, -5.48362732E-05, 3.1271894   , -0.0144685237, 7.246937E-05, 918.0835    , 31.7039     , 823.9462    , 1.17        , 3           , 20          , 0           , 0
-0.143304914, -0.146245286, 9.791075    , 7.484149E-05, -0.000173727924, -0.000409061438, 3.12719     , -0.0144667281, 7.653487E-05, 918.0835    , 31.7039     , 823.9465    , 1.18        , 3           , 21          , 0           , 0
-0.140683845, -0.142094418, 9.806927    , -0.000189047889, -4.73791733E-05, -0.000244119976, 3.12718821  , -0.0144662187, 7.896918E-05, 918.0835    , 31.7039     , 823.9467    , 1.19        , 3           , 22          , 0           , 0
-0.140994281, -0.134019524, 9.803041    , -0.000411759655, 0.000119117089, -0.0002753653, 3.12718415  , -0.0144673707, 8.173992E-05, 918.0835    , 31.7039     , 823.94696   , 1.2         , 3           , 40          , 0           , 0
-0.135649413, -0.135307983, 9.799403    , 0.000353450043, -1.87387923E-06, -0.000262835034, 3.12719     , -0.0144672105, 8.433286E-05, 918.0835    , 31.7039     , 823.9875    , 1.21        , 3           , 41          , 0           , 0
-0.147946671, -0.14632836 , 9.793167    , 0.0003000987, 0.000301532127, -0.000400151039, 3.127193    , -0.0144701684, 8.83776956E-05, 918.0835    , 31.7039     , 823.987854  , 1.22        , 3           , 42          , 0           , 0
-0.140993133, -0.13677302 , 9.795511    , -0.000869931129, 0.000264922564, -0.000310466654, 3.12718415  , -0.0144727733, 9.15204655E-05, 918.126465  , 31.70485    , 823.9882    , 1.23        , 3           , 255         , 0           , 0
-0.138746887, -0.139929742, 9.786264    , -0.0009554022, 0.000521269452, -0.000621705, 3.12717462  , -0.0144778937, 9.781248E-05, 918.126465  , 31.70485    , 823.988647  , 1.24        , 3           , 255         , 0           , 0
-0.136730641, -0.1552246  , 9.794682    , -0.000479918031, -0.0003596868, -0.0008630157, 3.12716961  , -0.014474174, 0.000106390566, 918.126465  , 31.70485    , 823.9891    , 1.25        , 3           , 255         , 0           , 0
-0.154116079, -0.143283188, 9.809465    , -0.00093590765, 0.00019483699, -0.000175177571, 3.12716031  , -0.0144760944, 0.000108170418, 918.126465  , 31.70485    , 823.9895    , 1.26        , 3           , 255         , 0           , 0
-0.151445344, -0.137812957, 9.808021    , -0.0005941715, 4.38768766E-05, 2.34279978E-05, 3.12715435  , -0.0144765368, 0.000107942462, 918.126465  , 31.70485    , 823.9899    , 1.27        , 3           , 255         , 0           , 0
-0.140299514, -0.148371682, 9.795875    , 0.000192266773, -0.000254361017, 3.57951649E-05, 3.12715626  , -0.014474   , 0.000107547807, 918.126465  , 31.70485    , 823.990356  , 1.28        , 3           , 255         , 0           , 0
-0.137453049, -0.1374087  , 9.798788    , -0.000113188173, -2.7022732E-05, 0.000505955133, 3.1271553   , -0.0144738033, 0.000102484475, 918.126465  , 31.70485    , 823.9908    , 1.29        , 3           , 255         , 0           , 0
-0.13731046 , -0.150144428, 9.809168    , 0.000233856292, -0.00069706334, 0.000136707647, 3.12715745  , -0.0144668557, 0.0001010168, 918.126465  , 31.70485    , 823.9912    , 1.3         , 3           , 255         , 0           , 0
-0.144956857, -0.148176074, 9.806757    , 0.000157266535, 0.0003077988, 1.40242773E-05, 3.12715554  , -0.0144703416, 0.000100972917, 918.126465  , 31.70485    , 823.9827    , 1.31        , 3           , 255         , 0           , 0
-0.144380867, -0.147620514, 9.799231    , 0.00067046436, 0.000127425184, -2.70890287E-05, 3.12716222  , -0.014471611, 0.0001012622, 918.126465  , 31.70485    , 823.9831    , 1.32        , 3           , 255         , 0           , 0
-0.141456589, -0.143553823, 9.802355    , 0.000115567906, 0.0003285178, -0.000218978821, 3.12716341  , -0.0144748641, 0.000103499333, 918.1156    , 31.70607    , 823.983459  , 1.33        , 3           , 255         , 0           , 0
-0.142282173, -0.140782014, 9.79218     , 0.000179978786, 0.000504653144, 0.0002144267, 3.127165    , -0.0144799408, 0.000101427926, 918.1156    , 31.70607    , 823.9838    , 1.34        , 3           , 255         , 0           , 0
-0.145256087, -0.138796747, 9.792582    , -0.000232880586, 1.18249445E-05, 0.0003198995, 3.127163    , -0.0144801056, 9.82307247E-05, 918.1156    , 31.70607    , 823.9842    , 1.35        , 3           , 255         , 0           , 0
-0.147093743, -0.139634192, 9.801002    , 4.03321465E-05, 0.00038344838, 0.000230881546, 3.12716341  , -0.0144839725, 9.59772951E-05, 918.1156    , 31.70607    , 823.984558  , 1.36        , 3           , 255         , 0           , 0
-0.142755553, -0.137855262, 9.796702    , 8.88786744E-05, -8.827582E-05, 5.594999E-05, 3.12716436  , -0.0144830979, 9.540507E-05, 918.1156    , 31.70607    , 823.985     , 1.37        , 3           , 255         , 0           , 0
-0.141389608, -0.1375459  , 9.800415    , -0.000363740022, -0.000291685516, 5.57026942E-05, 3.12716055  , -0.0144801894, 9.480597E-05, 918.1156    , 31.70607    , 823.9854    , 1.38        , 3           , 255         , 0           , 0
-0.132482737, -0.145904362, 9.792776    , -0.000324867957, -0.000152034627, -0.00010233972, 3.12715745  , -0.0144786546, 9.58074E-05 , 918.1156    , 31.70607    , 823.98584   , 1.39        , 3           , 255         , 0           , 0
-0.132222936, -0.147257566, 9.79989052  , -0.0002612454, -0.000232070917, -0.000505359843, 3.12715459  , -0.014476262, 0.000100827368, 918.1156    , 31.70607    , 823.986267  , 1.4         , 3           , 255         , 0           , 0
-0.140316218, -0.14357695 , 9.80499     , -0.000137467228, 0.0003488272, 0.000273212616, 3.12715054  , -0.0144787878, 9.81857447E-05, 918.1156    , 31.70607    , 823.989563  , 1.41        , 3           , 255         , 0           , 0
-0.140707642, -0.139193967, 9.79779     , 0.000319151732, 9.715045E-05, -0.000568398042, 3.12715364  , -0.0144796772, 0.00010388362, 918.1156    , 31.70607    , 823.99      , 1.42        , 3           , 255         , 0           , 0
-0.1402253  , -0.14376609 , 9.78908348  , 0.0004444624, -5.39009343E-05, -0.0007390623, 3.127158    , -0.0144790318, 0.000111266279, 918.1187    , 31.70641    , 823.9904    , 1.43        , 3           , 255         , 0           , 0
-0.144694567, -0.14242281 , 9.793539    , 8.264161E-05, 0.000102552352, -0.0007502521, 3.12715864  , -0.0144799482, 0.00011878342, 918.1187    , 31.70641    , 823.990845  , 1.44        , 3           , 255         , 0           , 0
-0.135796234, -0.146718189, 9.79819     , -0.000352573174, -0.000393215334, -0.000193851709, 3.127155    , -0.0144759892, 0.000120665129, 918.1187    , 31.70641    , 823.9913    , 1.45        , 3           , 255         , 0           , 0
-0.154127181, -0.144465372, 9.797237    , -0.000119956268, 8.369412E-05, 0.0001757762, 3.127154    , -0.0144768506, 0.000118919488, 918.1187    , 31.70641    , 823.9917    , 1.46        , 3           , 255         , 0           , 0
-0.147659   , -0.150311932, 9.796057    , -0.000130546221, 1.02175982E-05, -8.193032E-05, 3.12715268  , -0.014476941, 0.000119740238, 918.1187    , 31.70641    , 823.9921    , 1.47        , 3           , 255         , 0           , 0
-0.130735278, -0.145512745, 9.792921    , 6.39759237E-05, 0.000326509384, 0.0005171647, 3.1271534   , -0.0144802807, 0.000114615868, 918.1187    , 31.70641    , 823.992554  , 1.48        , 3           , 255         , 0           , 0
-0.137214586, -0.14903459 , 9.80302     , -0.000138246745, 0.0003990528, 0.000207081277, 3.127152    , -0.0144843021, 0.000112602727, 918.1187    , 31.70641    , 823.993     , 1.49        , 3           , 255         , 0           , 0
-0.137509122, -0.137129784, 9.798716    , 6.480515E-05, 0.000135834242, 0.000105342755, 3.12715268  , -0.0144856758, 0.000111568952, 918.1187    , 31.70641    , 823.9934    , 1.5         , 3           , 255         , 0           , 0
-0.1428021  , -0.1502007  , 9.798293    , -0.000230363628, -0.000378129655, 7.715417E-05, 3.12714434  , -0.0144797992, 0.000110830282, 918.1187    , 31.70641    , 823.992554  , 1.51        , 3           , 255         , 0           , 0
-0.142206162, -0.1504241  , 9.798719    , -4.793756E-05, -0.000222098082, 0.000267978932, 3.12714386  , -0.0144776171, 0.000108118467, 918.1187    , 31.70641    , 823.993     , 1.52        , 3           , 255         , 0           , 0
-0.140449911, -0.15087615 , 9.802281    , 0.000199006579, 0.000122357393, 9.487994E-07, 3.127146    , -0.0144788409, 0.00010812666, 918.1278    , 31.70858    , 823.9934    , 1.53        , 3           , 255         , 0           , 0
-0.139139012, -0.14702116 , 9.799368    , -0.000126645144, -2.820231E-05, 6.501831E-05, 3.12714458  , -0.014478568, 0.00010747242, 918.1278    , 31.70858    , 823.993835  , 1.54        , 3           , 255         , 0           , 0
-0.131658584, -0.149938419, 9.80215     , 0.000260920177, -2.79050437E-05, -0.0008641563, 3.1271472   , -0.0144781638, 0.000116109732, 918.1278    , 31.70858    , 823.994263  , 1.55        , 3           , 255         , 0           , 0
-0.140973732, -0.145822421, 9.794266    , 0.000321557862, 0.000285895832, -0.0007357313, 3.1271503   , -0.0144809149, 0.000123508158, 918.1278    , 31.70858    , 823.9947    , 1.56        , 3           , 255         , 0           , 0
-0.141901731, -0.134806231, 9.796743    , 0.000110174093, -0.0002681347, -0.000147415762, 3.12715125  , -0.0144782169, 0.000124943559, 918.1278    , 31.70858    , 823.9951    , 1.57        , 3           , 255         , 0           , 0
-0.1402745  , -0.141632468, 9.799643    , -0.000234668085, -0.000332589727, 9.26622852E-06, 3.127149    , -0.0144748921, 0.000124802871, 918.1278    , 31.70858    , 823.995544  , 1.58        , 3           , 255         , 0           , 0
-0.135300592, -0.152063578, 9.794741    , -6.34992E-05, 0.000448953768, 0.000291363162, 3.12714839  , -0.014479422, 0.000121954145, 918.1278    , 31.70858    , 823.996     , 1.59        , 3           , 255         , 0           , 0
-0.133296043, -0.149513677, 9.793997    , -0.0002301074, 0.000519695 , 0.000367729372, 3.12714624  , -0.0144846709, 0.000118352007, 918.1278    , 31.70858    , 823.9964    , 1.6         , 3           , 255         , 0           , 0
-0.140760049, -0.143953517, 9.79832     , -0.000186651247, 6.8549416E-05, 0.0002835858, 3.12713265  , -0.0144791  , 0.000115693867, 918.1278    , 31.70858    , 823.9855    , 1.61        , 3           , 255         , 0           , 0
-0.143980056, -0.144396141, 9.804031    , -0.000141345779, 0.00018712529, 0.000110879868, 3.12713146  , -0.0144809866, 0.000114612165, 918.1278    , 31.70858    , 823.9859    , 1.62        , 3           , 255         , 0           , 0
-0.140304118, -0.13606742 , 9.796143    , -0.000410090433, -0.000399380981, 6.328069E-05, 3.12712717  , -0.0144770024, 0.000113921604, 918.101868  , 31.7079029  , 823.9863    , 1.63        , 3           , 255         , 0           , 0
-0.1361666  , -0.14450866 , 9.799143    , -0.000429596636, -0.0001615691, 0.000295969454, 3.127123    , -0.0144754313, 0.0001109386, 918.101868  , 31.7079029  , 823.986755  , 1.64        , 3           , 255         , 0           , 0
-0.145159632, -0.1444802  , 9.80808449  , -0.000148735067, 0.000168184954, -0.0004981419, 3.12712145  , -0.0144770388, 0.000115944233, 918.101868  , 31.7079029  , 823.9872    , 1.65        , 3           , 255         , 0           , 0
-0.140675813, -0.141103148, 9.795298    , 0.000575064449, 5.785143E-06, 8.71096054E-05, 3.12712717  , -0.01447711 , 0.000115074006, 918.101868  , 31.7079029  , 823.9876    , 1.66        , 3           , 255         , 0           , 0
-0.1357836  , -0.139896587, 9.789434    , 0.0006281776, -0.0003118186, -0.000341852166, 3.12713337  , -0.0144739458, 0.000118447359, 918.101868  , 31.7079029  , 823.988037  , 1.67        , 3           , 255         , 0           , 0
-0.143259943, -0.1341426  , 9.78127     , 0.000195863133, 0.0006003223, -0.000440792966, 3.12713528  , -0.0144798812, 0.000122941972, 918.101868  , 31.7079029  , 823.988464  , 1.68        , 3           , 255         , 0           , 0
-0.144903481, -0.141431808, 9.799432    , -1.46508683E-05, 0.00014592355, 0.000281114917, 3.12713528  , -0.0144813815, 0.000120151977, 918.101868  , 31.7079029  , 823.9889    , 1.69        , 3           , 255         , 0           , 0
-0.136252463, -0.144666031, 9.794442    , 0.000154143752, -0.0003825237, 4.39335126E-05, 3.12713671  , -0.0144775631, 0.000119657358, 918.101868  , 31.7079029  , 823.9893    , 1.7         , 3           , 255         , 0           , 0
-0.1387634  , -0.14126417 , 9.801925    , 0.000143565063, -0.000329319679, -0.00041745897, 3.12713885  , -0.0144717852, 0.0001237746, 918.101868  , 31.7079029  , 824.0076    , 1.71        , 3           , 255         , 0           , 0
-0.13837339 , -0.141563386, 9.794212    , -0.0001444277, 0.00014961639, 0.0005125694, 3.12713742  , -0.0144733563, 0.00011867068, 918.101868  , 31.7079029  , 824.0081    , 1.72        , 3           , 255         , 0           , 0
-0.139576048, -0.131333992, 9.790706    , 0.0005383064, -0.0003596283, -0.000598865445, 3.12714267  , -0.0144696757, 0.0001246072, 918.098633  , 31.7096653  , 824.008667  , 1.73        , 3           , 255         , 0           , 0
-0.143914059, -0.136085942, 9.794554    , 6.573909E-05, -0.000174420071, 0.000425414823, 3.12714338  , -0.014467991, 0.000120327961, 918.098633  , 31.7096653  , 824.0092    , 1.74        , 3           , 255         , 0           , 0
-0.147765547, -0.144535214, 9.806604    , -0.00022575364, 0.000294797734, 0.000191869287, 3.12714124  , -0.0144709665, 0.000118451913, 918.098633  , 31.7096653  , 824.009766  , 1.75        , 3           , 255         , 0           , 0
-0.136131927, -0.142797068, 9.798422    , -0.000197548012, 0.0005373546, -0.0004515355, 3.127139    , -0.0144762732, 0.000123044825, 918.098633  , 31.7096653  , 824.0103    , 1.76        , 3           , 255         , 0           , 0
-0.142079145, -0.139198691, 9.79941     , 0.000239429792, 0.0005410034, -0.0006423312, 3.12714148  , -0.0144815892, 0.000129546155, 918.098633  , 31.7096653  , 824.010864  , 1.77        , 3           , 255         , 0           , 0
-0.133464232, -0.1402971  , 9.795224    , 0.0002367599, -0.000275736675, 0.000228973528, 3.12714386  , -0.0144788651, 0.000127216626, 918.098633  , 31.7096653  , 824.0114    , 1.78        , 3           , 255         , 0           , 0
-0.140226945, -0.138896585, 9.789261    , 0.000120640558, 0.000120691489, 0.000135719267, 3.127145    , -0.0144800907, 0.0001258769, 918.098633  , 31.7096653  , 824.011963  , 1.79        , 3           , 255         , 0           , 0
-0.148290917, -0.153826892, 9.78795052  , -4.1466672E-05, -0.000287634146, 0.00026733402, 3.12714481  , -0.0144772539, 0.000123162084, 918.098633  , 31.7096653  , 824.0125    , 1.8         , 3           , 255         , 0           , 0
-0.137739882, -0.13896285 , 9.795276    , -0.000518218265, -0.000498124165, 0.00024134171, 3.127141    , -0.0144702988, 0.000120658035, 918.098633  , 31.7096653  , 824.0324    , 1.81        , 3           , 255         , 0           , 0
-0.1432589  , -0.146345764, 9.794642    , 0.000364035572, -0.000307584531, 0.00039745844, 3.12714458  , -0.0144672841, 0.000116639116, 918.098633  , 31.7096653  , 824.0331    , 1.82        , 3           , 255         , 0           , 0
-0.149087   , -0.142658323, 9.80624     , -0.000123543956, 0.000406396954, 0.0004635591, 3.12714338  , -0.0144714126, 0.000112062335, 918.1464    , 31.71143    , 824.033752  , 1.83        , 3           , 255         , 0           , 0
-0.143468931, -0.144016013, 9.800314    , -4.58692666E-05, 0.000764050055, -0.000332063268, 3.127143    , -0.0144790048, 0.000115493291, 918.1464    , 31.71143    , 824.0344    , 1.84        , 3           , 255         , 0           , 0
-0.141581923, -0.144136637, 9.796667    , -0.0003582287, 0.000158136943, 1.97436384E-05, 3.12713933  , -0.0144805862, 0.000115318711, 918.1464    , 31.71143    , 824.0351    , 1.85        , 3           , 255         , 0           , 0
-0.133472189, -0.14327912 , 9.799009    , -8.27866E-05, -0.0003372535, -6.46898843E-05, 3.12713861  , -0.0144772045, 0.000115916839, 918.1464    , 31.71143    , 824.035767  , 1.86        , 3           , 255         , 0           , 0
-0.139823645, -0.146037132, 9.808329    , -5.4542732E-05, 9.08586662E-05, -0.000185600933, 3.127138    , -0.0144780865, 0.000117785938, 918.1464    , 31.71143    , 824.036438  , 1.87        , 3           , 255         , 0           , 0
-0.1443268  , -0.147823378, 9.798506    , 0.0004882082, 0.000126243162, -0.000338424725, 3.12714267  , -0.0144792991, 0.000121188343, 918.1464    , 31.71143    , 824.0371    , 1.88        , 3           , 255         , 0           , 0
-0.142695054, -0.138955519, 9.798428    , -0.0005783627, 6.434292E-05, 2.51825222E-05, 3.127137    , -0.0144799473, 0.000120945828, 918.1464    , 31.71143    , 824.0378    , 1.89        , 3           , 255         , 0           , 0
-0.144515738, -0.140128568, 9.798597    , -0.0005954419, 0.000345473585, -0.0001701646, 3.127131    , -0.0144833783, 0.000122697384, 918.1464    , 31.71143    , 824.038452  , 1.9         , 3           , 255         , 0           , 0
-0.141431   , -0.140347958, 9.798217    , -0.000126317376, 0.0006513734, 0.0003483936, 3.127127    , -0.0144900717, 0.00011934909, 918.1464    , 31.71143    , 823.9999    , 1.91        , 3           , 255         , 0           , 0
-0.148256764, -0.130890727, 9.805761    , -0.000505885168, 0.0003916679, 0.00019752451, 3.127122    , -0.0144940158, 0.000117430558, 918.1464    , 31.71143    , 824.0003    , 1.92        , 3           , 255         , 0           , 0
-0.148125917, -0.141630784, 9.804196    , -3.729132E-05, -5.850871E-05, 0.000108814689, 3.12712145  , -0.0144934468, 0.000116333962, 918.1231    , 31.7112942  , 824.000732  , 1.93        , 3           , 255         , 0           , 0
-0.135462567, -0.145955279, 9.797949    , 0.000152668217, -0.000120800862, 0.000213962747, 3.127123    , -0.0144922705, 0.000114176917, 918.1231    , 31.7112942  , 824.00116   , 1.94        , 3           , 255         , 0           , 0
-0.1383439  , -0.139828756, 9.791391    , 0.000133017485, 0.000392255315, 0.00021263212, 3.12712455  , -0.0144962231, 0.000112107395, 918.1231    , 31.7112942  , 824.0016    , 1.95        , 3           , 255         , 0           , 0
-0.145415574, -0.135236159, 9.796362    , -0.000350643939, 6.56044E-05 , -0.000953005, 3.12712073  , -0.0144967418, 0.000121646706, 918.1231    , 31.7112942  , 824.002     , 1.96        , 3           , 255         , 0           , 0
-0.134596124, -0.145295411, 9.802687    , 0.000222772767, -0.0001320446, 6.86499843E-05, 3.127123    , -0.0144954305, 0.00012094112, 918.1231    , 31.7112942  , 824.002441  , 1.97        , 3           , 255         , 0           , 0
-0.133372858, -0.143693343, 9.801535    , 0.0005828638, -0.000200396637, 0.0003451841, 3.12712884  , -0.0144934766, 0.000117460368, 918.1231    , 31.7112942  , 824.002869  , 1.98        , 3           , 255         , 0           , 0
-0.147056311, -0.147977039, 9.799665    , 0.000259015156, 9.84692E-05 , 5.180962E-05, 3.12713146  , -0.0144944685, 0.000116956529, 918.1231    , 31.7112942  , 824.0033    , 1.99        , 3           , 255         , 0           , 0
-0.144815877, -0.145793587, 9.796523    , 0.000275939325, 0.000154608744, 2.197008E-05, 3.12713432  , -0.0144960172, 0.000116759184, 918.1231    , 31.7112942  , 824.0038    , 2           , 3           , 0           , 7.54323626  , 200
-0.143183917, -0.144228056, 9.795259    , -0.000494977168, 0.000330935174, -0.000617093057, 3.12712955  , -0.0144985719, 0.000122974481, 918.1231    , 31.7112942  , 823.996155  , 2.01        , 3           , 1           , 0           , 0
-0.1391835  , -0.142611325, 9.797167    , -0.000583232555, 0.000283727422, 0.00047333815, 3.12712383  , -0.0145014767, 0.000118282253, 918.1231    , 31.7112942  , 823.9966    , 2.02        , 3           , 2           , 0           , 0
-0.141616523, -0.145346612, 9.797502    , -0.00037929503, 0.000104070466, 0.0007423438, 3.12712     , -0.014502625, 0.000110874047, 918.1356    , 31.7113628  , 823.997     , 2.03        , 3           , 3           , 0           , 0
-0.144170329, -0.13722302 , 9.795964    , 0.000655103766, 2.401357E-06, -0.000308841176, 3.12712646  , -0.0145026045, 0.000113962735, 918.1356    , 31.7113628  , 823.997437  , 2.04        , 3           , 4           , 0           , 0
-0.141201481, -0.137436181, 9.801344    , 0.000260865432, 0.000302441884, -0.000104384533, 3.127129    , -0.0145056127, 0.0001150503, 918.1356    , 31.7113628  , 823.997864  , 2.05        , 3           , 5           , 0           , 0
-0.13490279 , -0.134086236, 9.793345    , 0.000238939421, 0.000210135244, -0.000437634677, 3.12713146  , -0.01450765 , 0.000119456934, 918.1356    , 31.7113628  , 823.9983    , 2.06        , 3           , 6           , 0           , 0
-0.135110959, -0.1262051  , 9.793215    , 4.944729E-05, -0.000488610647, 0.000420500262, 3.127132    , -0.0145028261, 0.00011518137, 918.1356    , 31.7113628  , 823.9987    , 2.07        , 3           , 7           , 0           , 0
-0.14260526 , -0.1315045  , 9.790918    , 0.000109950779, -0.000162897923, 0.000263751921, 3.12713313  , -0.0145012354, 0.000112520378, 918.1356    , 31.7113628  , 823.999146  , 2.08        , 3           , 8           , 5           , 5
-0.139175758, -0.138012573, 9.793571    , 0.000248320837, -0.000107903325, -0.000275686878, 3.12713552  , -0.0145001169, 0.000115261573, 918.1356    , 31.7113628  , 823.9996    , 2.09        , 3           , 9           , 5           , 0.1
-0.142265156, -0.137210608, 9.799694    , -6.87202555E-05, 1.79896015E-05, 0.0004702195, 3.127135    , -0.0145003647, 0.00011056209, 918.1356    , 31.7113628  , 824         , 2.1         , 3           , 10          , 0.1         , 0.1
-0.1475095  , -0.135854259, 9.806417    , -1.30868284E-05, 0.0001249715, -0.000513550767, 3.12714386  , -0.0144978277, 0.000115583956, 918.1356    , 31.7113628  , 823.977     , 2.11        , 3           , 11          , 0.008659438 , 0.008659439
-0.13997291 , -0.137879938, 9.809515    , -0.000340860337, 0.000253389037, -6.6282184E-05, 3.12714052  , -0.0145003526, 0.000116283365, 918.1356    , 31.7113628  , 823.9773    , 2.12        , 3           , 12          , 0.174643889 , 0
-0.130203918, -0.140656114, 9.790645    , 3.29448376E-05, -0.000339177146, 0.000183471988, 3.12714076  , -0.0144969868, 0.000114399685, 918.103943  , 31.7124481  , 823.9776    , 2.13        , 3           , 13          , 0           , 0
-0.132273108, -0.134741709, 9.796793    , -0.000455312664, -0.000606339367, -0.000226700329, 3.12713623  , -0.0144908922, 0.000116578987, 918.103943  , 31.7124481  , 823.9779    , 2.14        , 3           , 14          , -0.0005772115, -0.0006147937
-0.1434565  , -0.135222122, 9.799347    , 2.17051711E-05, 7.391756E-05, 0.000237098808, 3.12713647  , -0.0144916661, 0.000114218754, 918.103943  , 31.7124481  , 823.9782    , 2.15        , 3           , 15          , 0           , -1.88847789E-05
-0.141107053, -0.1432211  , 9.785892    , 6.966415E-05, 3.34538054E-05, -0.0003157842, 3.12713718  , -0.0144919548, 0.000117381351, 918.103943  , 31.7124481  , 823.9785    , 2.16        , 3           , 16          , 0           , 1.401298E-45
-0.135814145, -0.144006044, 9.798939    , -9.179913E-05, 0.000236380787, -0.000267427822, 3.12713623  , -0.0144942794, 0.000120089739, 918.103943  , 31.7124481  , 823.9788    , 2.17        , 3           , 20          , 0           , 0
-0.138474584, -0.138097838, 9.798994    , 9.371649E-05, -0.000167258957, -0.000366915338, 3.127137    , -0.0144925546, 0.000123734644, 918.103943  , 31.7124481  , 823.9791    , 2.18        , 3           , 21          , 0           , 0
-0.146800458, -0.144554228, 9.798483    , -4.19833232E-05, 0.000220018148, 0.000159400515, 3.12713671  , -0.0144947777, 0.000122172467, 918.103943  , 31.7124481  , 823.979431  , 2.19        , 3           , 22          , 0           , 0
-0.140457183, -0.145704508, 9.800229    , -0.0009202106, -1.21110352E-05, -3.89161141E-05, 3.12712741  , -0.01449465 , 0.000122559883, 918.103943  , 31.7124481  , 823.979736  , 2.2         , 3           , 40          , 0           , 0
-0.134146422, -0.1401167  , 9.797513    , -0.000380885322, -8.818973E-05, -0.000413763133, 3.12712646  , -0.0144894049, 0.00012664152, 918.103943  , 31.7124481  , 823.9992    , 2.21        , 3           , 41          , 0           , 0
-0.143917039, -0.138960809, 9.800382    , 5.43653732E-06, 0.000245439121, 0.0003385592, 3.12712669  , -0.0144919092, 0.000123291524, 918.103943  , 31.7124481  , 823.999634  , 2.22        , 3           , 42          , 0           , 0
-0.144710466, -0.134286851, 9.796026    , -0.0001773726, 0.000388827524, 5.77898063E-05, 3.12712479  , -0.014495803, 0.0001227699, 918.1336    , 31.71333    , 824.000061  , 2.23        , 3           , 255         , 0           , 0
-0.14119418 , -0.139634967, 9.803923    , -0.00016423862, 7.528672E-05, 7.802384E-05, 3.12712336  , -0.0144965667, 0.000122000565, 918.1336    , 31.71333    , 824.0005    , 2.24        , 3           , 255         , 0           , 0
-0.137333035, -0.1366727  , 9.802359    , -0.000781373761, 0.000434913934, -7.91224738E-05, 3.12711549  , -0.0145009039, 0.0001228547, 918.1336    , 31.71333    , 824.0009    , 2.25        , 3           , 255         , 0           , 0
-0.152013913, -0.134071976, 9.796715    , -0.0003525652, -0.000106485037, 0.000338676153, 3.127112    , -0.0144998869, 0.000119452605, 918.1336    , 31.71333    , 824.001343  , 2.26        , 3           , 255         , 0           , 0
-0.142794162, -0.13815394 , 9.788546    , -0.000259593653, -0.000200267124, -0.0003056507, 3.12710929  , -0.01449784 , 0.000122480022, 918.1336    , 31.71333    , 824.0018    , 2.27        , 3           , 255         , 0           , 0
-0.138316408, -0.143589675, 9.794356    , -0.000129776541, -0.00016064028, -0.0005124762, 3.12710786  , -0.0144961588, 0.000127581385, 918.1336    , 31.71333    , 824.0022    , 2.28        , 3           , 255         , 0           , 0
-0.135945171, -0.14400278 , 9.806093    , -0.000116535637, 2.42406386E-05, 0.000825731258, 3.127107    , -0.0144965211, 0.000119327779, 918.1336    , 31.71333    , 824.0026    , 2.29        , 3           , 255         , 0           , 0
-0.142082334, -0.146628156, 9.796831    , 7.47273443E-05, -0.000152988185, 0.000724073558, 3.12710762  , -0.0144950962, 0.000112065063, 918.1336    , 31.71333    , 824.003052  , 2.3         , 3           , 255         , 0           , 0
-0.151861712, -0.1504257  , 9.795287    , -4.02370351E-05, -0.000125866849, 7.24584243E-05, 3.1271112   , -0.0144923441, 0.000111265152, 918.1336    , 31.71333    , 823.98114   , 2.31        , 3           , 255         , 0           , 0
-0.1463497  , -0.143724263, 9.792983    , 0.000274334336, 6.716361E-05, 0.000281905785, 3.127114    , -0.0144930566, 0.000108455883, 918.1336    , 31.71333    , 823.981445  , 2.32        , 3           , 255         , 0           , 0
-0.141460791, -0.147656515, 9.799949    , -0.000112419249, 0.000162870972, -8.417286E-05, 3.12711287  , -0.0144946724, 0.000109321176, 918.10614   , 31.71143    , 823.98175   , 2.33        , 3           , 255         , 0           , 0
-0.141710132, -0.142354652, 9.79774952  , -2.626906E-05, 0.000307710638, 0.000113776223, 3.12711263  , -0.0144977663, 0.000108228 , 918.10614   , 31.71143    , 823.982056  , 2.34        , 3           , 255         , 0           , 0
-0.150435016, -0.135553449, 9.803545    , 9.81822959E-05, 0.000155374437, 0.000302665081, 3.12711382  , -0.0144993626, 0.000105223924, 918.10614   , 31.71143    , 823.982361  , 2.35        , 3           , 255         , 0           , 0
-0.13510552 , -0.139975384, 9.800562    , 0.0003718556, 0.000138361967, 8.158224E-05, 3.1271174   , -0.0145007586, 0.00010442816, 918.10614   , 31.71143    , 823.982666  , 2.36        , 3           , 255         , 0           , 0
-0.138396382, -0.143507987, 9.799616    , 0.000517509 , 0.000374926283, 0.000143095356, 3.12712264  , -0.0145045286, 0.000103051512, 918.10614   , 31.71143    , 823.983     , 2.37        , 3           , 255         , 0           , 0
-0.135910809, -0.145693734, 9.797133    , -7.006142E-05, 0.000183125609, -0.0002821335, 3.127122    , -0.0145063186, 0.000105899271, 918.10614   , 31.71143    , 823.9833    , 2.38        , 3           , 255         , 0           , 0
-0.140535086, -0.137396023, 9.800227    , 0.000153224129, 0.00055177015, -0.000378125784, 3.12712336  , -0.0145117817, 0.000109760287, 918.10614   , 31.71143    , 823.9836    , 2.39        , 3           , 255         , 0           , 0
-0.137353271, -0.1335126  , 9.802235    , 6.013224E-05, 0.00038215128, 0.000162929457, 3.127124    , -0.0145156262, 0.000108186323, 918.10614   , 31.71143    , 823.9839    , 2.4         , 3           , 255         , 0           , 0
-0.143496081, -0.144359082, 9.804308    , -0.000232883089, -2.017169E-05, -0.000392205548, 3.12712145  , -0.0145150553, 0.000112107518, 918.10614   , 31.71143    , 824.000549  , 2.41        , 3           , 255         , 0           , 0
-0.137240469, -0.1454237  , 9.800687    , -0.000195862376, -0.000332590484, 2.152048E-05, 3.12711954  , -0.0145117333, 0.00011184418, 918.10614   , 31.71143    , 824.001     , 2.42        , 3           , 255         , 0           , 0
-0.143537268, -0.145881891, 9.794904    , 0.000474755216, 1.06469961E-05, -0.0001230032, 3.12712431  , -0.0145118218, 0.000113075723, 918.1173    , 31.71428    , 824.0014    , 2.43        , 3           , 255         , 0           , 0
-0.147037148, -0.140954062, 9.80111     , -0.00014568941, -0.000282053719, 0.0006047542, 3.12712288  , -0.0145090893, 0.000106987529, 918.1173    , 31.71428    , 824.001831  , 2.44        , 3           , 255         , 0           , 0
-0.1409061  , -0.143512592, 9.791948    , -0.000184676086, -0.000364779436, -0.000441719953, 3.127121    , -0.014505377, 0.000111351837, 918.1173    , 31.71428    , 824.002258  , 2.45        , 3           , 255         , 0           , 0
-0.138724342, -0.14658238 , 9.79424     , -0.0002938225, -9.97453462E-05, -0.000357651239, 3.12711787  , -0.0145043284, 0.000114913812, 918.1173    , 31.71428    , 824.0027    , 2.46        , 3           , 255         , 0           , 0
-0.134431556, -0.135243416, 9.795795    , 0.0001015967, 0.000114912749, -0.000217375709, 3.127119    , -0.014505446, 0.000117104159, 918.1173    , 31.71428    , 824.0031    , 2.47        , 3           , 255         , 0           , 0
-0.133341059, -0.137891531, 9.800357    , 0.000209578546, 0.00013835603, -0.0007052738, 3.127121    , -0.0145067275, 0.00012417676, 918.1173    , 31.71428    , 824.00354   , 2.48        , 3           , 255         , 0           , 0
-0.135891676, -0.14742218 , 9.797055    , 0.000269332842, 0.000294890371, -0.0004938178, 3.12712359  , -0.0145096052, 0.000129157474, 918.1173    , 31.71428    , 824.003967  , 2.49        , 3           , 255         , 0           , 0
-0.138144732, -0.148235828, 9.802856    , 0.0005116039, 0.0002631017, -0.0003617661, 3.1271286   , -0.0145121841, 0.000132813118, 918.1173    , 31.71428    , 824.0044    , 2.5         , 3           , 255         , 0           , 0
-0.144102484, -0.1517236  , 9.805874    , -0.000305232, 0.000219589565, -0.0008557256, 3.1271224   , -0.0145093026, 0.0001414454, 918.1173    , 31.71428    , 824.00354   , 2.51        , 3           , 255         , 0           , 0
-0.147099823, -0.1475577  , 9.812226    , 7.121009E-05, 0.000164692989, -0.000144104488, 3.127123    , -0.0145109277, 0.000142910227, 918.1173    , 31.71428    , 824.003967  , 2.52        , 3           , 255         , 0           , 0
-0.14554894 , -0.1420897  , 9.793857    , 2.73084152E-05, -8.86354246E-05, 0.000325974135, 3.12712336  , -0.0145100895, 0.000139637763, 918.1437    , 31.71516    , 824.0044    , 2.53        , 3           , 255         , 0           , 0
-0.138525262, -0.14298895 , 9.800211    , -0.0002588902, -2.40848749E-05, -0.00022294448, 3.12712073  , -0.0145098167, 0.000141863668, 918.1437    , 31.71516    , 824.0049    , 2.54        , 3           , 255         , 0           , 0
-0.133659333, -0.1501133  , 9.804848    , -0.0007025934, 0.000135390961, -0.000104040504, 3.12711382  , -0.0145111559, 0.000142923629, 918.1437    , 31.71516    , 824.0054    , 2.55        , 3           , 255         , 0           , 0
-0.135922119, -0.147093564, 9.799843    , -0.0004427854, -0.000366585678, 0.0006003297, 3.12710953  , -0.0145075768, 0.000136867384, 918.1437    , 31.71516    , 824.005859  , 2.56        , 3           , 255         , 0           , 0
-0.143400639, -0.146983638, 9.797355    , -0.0003417718, -0.000205864722, 0.0004065143, 3.12710619  , -0.0145055773, 0.000132772519, 918.1437    , 31.71516    , 824.006348  , 2.57        , 3           , 255         , 0           , 0
-0.141906887, -0.1478799  , 9.799912    , 0.000583604968, -5.519518E-05, 0.001359542 , 3.12711215  , -0.0145052234, 0.000119169446, 918.1437    , 31.71516    , 824.006836  , 2.58        , 3           , 255         , 0           , 0
-0.1469039  , -0.143186316, 9.801997    , 0.00034913345, 0.000420822675, 0.000918639649, 3.12711573  , -0.0145095633, 0.0001100442, 918.1437    , 31.71516    , 824.0073    , 2.59        , 3           , 255         , 0           , 0
-0.1444451  , -0.141518831, 9.796847    , 0.0005091244, 0.0004681455, -0.000132635862, 3.12712073  , -0.0145142246, 0.0001114383, 918.1437    , 31.71516    , 824.0078    , 2.6         , 3           , 255         , 0           , 0
-0.144254386, -0.139555886, 9.79163     , 6.417255E-05, 0.0002823267, -0.000107112108, 3.12711525  , -0.0145168891, 0.000112640017, 918.1437    , 31.71516    , 823.9706    , 2.61        , 3           , 255         , 0           , 0
-0.147889689, -0.136333048, 9.7954      , 0.000365127053, -0.000233692292, -0.0003251048, 3.12711883  , -0.0145145068, 0.000115857161, 918.1437    , 31.71516    , 823.9708    , 2.62        , 3           , 255         , 0           , 0
-0.141323239, -0.137427479, 9.797201    , 9.21272149E-05, 0.00020381494, -0.000215539156, 3.12711978  , -0.0145165129, 0.000118042015, 918.0811    , 31.71299    , 823.971069  , 2.63        , 3           , 255         , 0           , 0
-0.1392285  , -0.139016017, 9.802154    , -0.000504517346, 0.000123389589, -2.111454E-05, 3.12711477  , -0.0145177431, 0.000118271011, 918.0811    , 31.71299    , 823.9713    , 2.64        , 3           , 255         , 0           , 0
-0.142318949, -0.1440314  , 9.799309    , -0.000154593377, 0.000213491614, -0.0002533232, 3.127113    , -0.0145198405, 0.000120835088, 918.0811    , 31.71299    , 823.971558  , 2.65        , 3           , 255         , 0           , 0
-0.1481298  , -0.1505115  , 9.79355049  , -6.746006E-05, 0.000253510429, 0.000314635981, 3.12711239  , -0.01452242 , 0.000117725511, 918.0811    , 31.71299    , 823.9718    , 2.66        , 3           , 255         , 0           , 0
-0.145150408, -0.149786144, 9.803372    , -0.0003490036, 8.51351651E-05, -0.0003000575, 3.127109    , -0.0145232286, 0.000120738332, 918.0811    , 31.71299    , 823.972046  , 2.67        , 3           , 255         , 0           , 0
-0.143638313, -0.160474151, 9.804146    , 0.00082354917, 0.0005627972, 6.46278E-06 , 3.12711716  , -0.0145288566, 0.000120755176, 918.0811    , 31.71299    , 823.9723    , 2.68        , 3           , 255         , 0           , 0
-0.134408146, -0.147545308, 9.803146    , 0.000734617468, 0.00060267956, 0.000143035024, 3.12712455  , -0.0145349046, 0.000119412092, 918.0811    , 31.71299    , 823.972534  , 2.69        , 3           , 255         , 0           , 0
-0.138065323, -0.14391087 , 9.805652    , 0.000192296633, 0.000188870064, -8.03897E-05, 3.12712646  , -0.01453678 , 0.00012024329, 918.0811    , 31.71299    , 823.9728    , 2.7         , 3           , 255         , 0           , 0
-0.14251855 , -0.145262092, 9.80107     , 0.0004965246, 0.00011753937, 0.000638910453, 3.127127    , -0.0145382592, 0.000113938688, 918.0811    , 31.71299    , 824.026367  , 2.71        , 3           , 255         , 0           , 0
-0.146619469, -0.14479138 , 9.796456    , 7.31343753E-05, 0.000296441052, -0.0005041421, 3.12712765  , -0.01454115 , 0.000119022872, 918.0811    , 31.71299    , 824.027     , 2.72        , 3           , 255         , 0           , 0
-0.146012977, -0.1361795  , 9.802678    , -0.000170534942, 0.000498431968, -0.000221459355, 3.12712574  , -0.014546101, 0.000121309509, 918.0821    , 31.7143478  , 824.0276    , 2.73        , 3           , 255         , 0           , 0
-0.142149821, -0.134222329, 9.801763    , -0.000234647829, -8.7712775E-05, 0.0003145509, 3.12712359  , -0.01454527 , 0.000118151365, 918.0821    , 31.7143478  , 824.0282    , 2.74        , 3           , 255         , 0           , 0
-0.136483774, -0.141906649, 9.799112    , 0.00011018815, -0.000229528465, 0.000346266839, 3.12712479  , -0.0145430248, 0.000114655581, 918.0821    , 31.7143478  , 824.0288    , 2.75        , 3           , 255         , 0           , 0
-0.143895388, -0.14054276 , 9.801345    , 0.000461184536, 0.0002066791, 0.000380188285, 3.12712932  , -0.0145451473, 0.000110883688, 918.0821    , 31.7143478  , 824.0294    , 2.76        , 3           , 255         , 0           , 0
-0.141801313, -0.141615614, 9.791061    , 0.000250247336, 0.000109250017, -0.00016249936, 3.127132    , -0.0145462155, 0.000112524445, 918.0821    , 31.7143478  , 824.03      , 2.77        , 3           , 255         , 0           , 0
-0.144393966, -0.142871186, 9.79474449  , 5.182915E-05, 9.15738055E-05, 0.000323160581, 3.12713242  , -0.0145471776, 0.000109306158, 918.0821    , 31.7143478  , 824.03064   , 2.78        , 3           , 255         , 0           , 0
-0.145788655, -0.149279684, 9.800922    , 0.000309312221, -0.000202704687, 0.000144039543, 3.12713552  , -0.0145451752, 0.000107836495, 918.0821    , 31.7143478  , 824.03125   , 2.79        , 3           , 255         , 0           , 0
-0.1503845  , -0.14385438 , 9.799979    , 0.0005208808, 0.0003555472, 9.857042E-05, 3.12714076  , -0.0145487422, 0.0001069022, 918.0821    , 31.7143478  , 824.03186   , 2.8         , 3           , 255         , 0           , 0
-0.154292613, -0.145860687, 9.797754    , -0.000357455516, 0.000276663981, -0.0005786389, 3.12713671  , -0.0145537555, 0.000112734633, 918.0821    , 31.7143478  , 824.0761    , 2.81        , 3           , 255         , 0           , 0
-0.13386412 , -0.147886083, 9.797569    , -0.0005257776, -5.69451367E-06, 0.000145114987, 3.12713146  , -0.0145537183, 0.000111282694, 918.0821    , 31.7143478  , 824.077     , 2.82        , 3           , 255         , 0           , 0
-0.133252114, -0.132927015, 9.799605    , 0.000122883153, -5.37866727E-05, 6.062286E-05, 3.12713265  , -0.0145531893, 0.0001106687, 918.132446  , 31.7174683  , 824.077942  , 2.83        , 3           , 255         , 0           , 0
-0.1478613  , -0.144851342, 9.79789     , 0.000222359376, -6.142957E-05, 0.0008574972, 3.127135    , -0.0145526985, 0.000102085047, 918.132446  , 31.7174683  , 824.078857  , 2.84        , 3           , 255         , 0           , 0
-0.1496228  , -0.135566413, 9.801258    , 0.0001847882, 0.00018309665, -2.4169367E-05, 3.127137    , -0.0145545248, 0.000102353224, 918.132446  , 31.7174683  , 824.0798    , 2.85        , 3           , 255         , 0           , 0
-0.139691114, -0.128668875, 9.804796    , 2.515735E-06, -0.0002209777, -0.0002058204, 3.127137    , -0.014552285, 0.000104379418, 918.132446  , 31.7174683  , 824.0807    , 2.86        , 3           , 255         , 0           , 0
-0.136487886, -0.143965542, 9.797083    , 0.0001938002, -9.38646845E-05, 0.000233262574, 3.12713885  , -0.01455138 , 0.000102033278, 918.132446  , 31.7174683  , 824.0816    , 2.87        , 3           , 255         , 0           , 0
-0.144910261, -0.14391835 , 9.788724    , 0.000318120874, 0.0004412789, -0.0004223149, 3.127142    , -0.0145557309, 0.0001063201, 918.132446  , 31.7174683  , 824.0825    , 2.88        , 3           , 255         , 0           , 0
-0.14920035 , -0.14323543 , 9.797877    , 0.000200514245, 0.0002041391, 0.0003974557, 3.127144    , -0.01455783 , 0.000102375147, 918.132446  , 31.7174683  , 824.083435  , 2.89        , 3           , 255         , 0           , 0
-0.143330365, -0.147147253, 9.795662    , -0.000302115222, -0.000103531871, 0.000335694145, 3.127141    , -0.0145568429, 9.900332E-05, 918.132446  , 31.7174683  , 824.084351  , 2.9         , 3           , 255         , 0           , 0
-0.141774788, -0.140189141, 9.802046    , 0.000123425038, 0.000128189567, 8.009032E-05, 3.12714267  , -0.01455918 , 9.821494E-05, 918.132446  , 31.7174683  , 824.0509    , 2.91        , 3           , 255         , 0           , 0
-0.14058122 , -0.143055439, 9.795627    , 0.0004632091, -9.864051E-05, 0.000420936878, 3.12714744  , -0.0145582547, 9.399144E-05, 918.132446  , 31.7174683  , 824.051636  , 2.92        , 3           , 255         , 0           , 0
-0.138249308, -0.141613841, 9.79176     , 0.000149732339, 7.517758E-05, -0.000211604944, 3.12714887  , -0.0145589793, 9.611829E-05, 918.1141    , 31.71645    , 824.052368  , 2.93        , 3           , 255         , 0           , 0
-0.1298574  , -0.138826579, 9.795794    , 0.000312963035, -0.000135937415, -0.0002593841, 3.127152    , -0.01455758 , 9.869244E-05, 918.1141    , 31.71645    , 824.0531    , 2.94        , 3           , 255         , 0           , 0
-0.144294024, -0.133605435, 9.799186    , -0.000225580472, 0.000393725117, -0.000183417607, 3.12714958  , -0.0145614911, 0.000100583427, 918.1141    , 31.71645    , 824.053833  , 2.95        , 3           , 255         , 0           , 0
-0.152463034, -0.135720879, 9.802732    , -8.390704E-05, 0.0003096951, 0.000331094925, 3.12714887  , -0.0145646362, 9.73172937E-05, 918.1141    , 31.71645    , 824.054565  , 2.96        , 3           , 255         , 0           , 0
-0.140998363, -0.1347964  , 9.801257    , 0.000530602061, 0.000394055736, 2.5532554E-06, 3.127154    , -0.0145685766, 9.734868E-05, 918.1141    , 31.71645    , 824.0553    , 2.97        , 3           , 255         , 0           , 0
-0.140207618, -0.132895678, 9.790593    , 0.000546024647, 0.000102416205, -0.000230759, 3.1271596   , -0.0145695666, 9.967099E-05, 918.1141    , 31.71645    , 824.056     , 2.98        , 3           , 255         , 0           , 0
-0.14182198 , -0.1391612  , 9.79064     , 7.991993E-05, 0.000336174649, 0.000336791185, 3.12716031  , -0.0145729762, 9.63516941E-05, 918.1141    , 31.71645    , 824.056763  , 2.99        , 3           , 255         , 0           , 0
-0.144437462, -0.140338868, 9.792632    , 0.000111986417, 0.000225538039, 0.00115883909, 3.12716174  , -0.0145753967, 8.47961055E-05, 918.1141    , 31.71645    , 824.0575    , 3           , 3           , 0           , 8.543237    , 300
-0.146010786, -0.143430382, 9.794785    , -2.69226148E-05, 0.000449627056, 0.0008288955, 3.1271677   , -0.0145778991, 7.64823E-05 , 918.1141    , 31.71645    , 824.0535    , 3.01        , 3           , 1           , 0           , 0
-0.134172857, -0.139791533, 9.801916    , 0.00031415018, 0.000268724543, 5.42252528E-05, 3.1271708   , -0.0145805944, 7.59788163E-05, 918.1141    , 31.71645    , 824.0542    , 3.02        , 3           , 2           , 0           , 0
-0.135894328, -0.139690384, 9.797313    , 0.000313059922, 0.000411890738, 0.0008202928, 3.12717414  , -0.0145848291, 6.783547E-05, 918.090149  , 31.7155685  , 824.0549    , 3.03        , 3           , 3           , 0           , 0
-0.1289614  , -0.134927124, 9.798012    , 4.51302622E-05, 0.00070850784, 0.000112256268, 3.12717462  , -0.0145919295, 6.681509E-05, 918.090149  , 31.7155685  , 824.0556    , 3.04        , 3           , 4           , 0           , 0
-0.1389486  , -0.132388592, 9.788676    , -6.760651E-05, -0.00036985625, -0.000814875239, 3.127174    , -0.0145881148, 7.491033E-05, 918.090149  , 31.7155685  , 824.056335  , 3.05        , 3           , 5           , 0           , 0
-0.134817541, -0.151282519, 9.794778    , 0.000377683376, -0.000309331575, -2.06705245E-05, 3.12717748  , -0.0145850219, 7.507244E-05, 918.090149  , 31.7155685  , 824.057068  , 3.06        , 3           , 6           , 0           , 0
-0.142262623, -0.154606745, 9.790182    , -0.000321768224, 0.000231575948, -0.000183439217, 3.12717438  , -0.0145873083, 7.694017E-05, 918.090149  , 31.7155685  , 824.0578    , 3.07        , 3           , 7           , 0           , 0
-0.138977736, -0.1451392  , 9.797254    , 0.000119685312, 0.000190944469, -0.000237831919, 3.12717557  , -0.014589184, 7.934596E-05, 918.090149  , 31.7155685  , 824.058533  , 3.08        , 3           , 8           , 5           , 5
-0.143494517, -0.142244861, 9.79779148  , 0.000470975 , -0.000113523914, 0.000225915064, 3.12718034  , -0.0145880822, 7.70705155E-05, 918.090149  , 31.7155685  , 824.059265  , 3.09        , 3           , 9           , 5           , 0.1
-0.1352297  , -0.1401504  , 9.795397    , 0.00044707983, -0.000315622543, 0.000489298138, 3.12718487  , -0.0145849958, 7.21321558E-05, 918.090149  , 31.7155685  , 824.06      , 3.1         , 3           , 10          , 0.1         , 0.1
-0.139975026, -0.136747286, 9.801325    , 0.000142921461, 0.0006308649, -0.000242196184, 3.12718415  , -0.014582104, 7.46744554E-05, 918.090149  , 31.7155685  , 824.0896    , 3.11        , 3           , 11          , 0.007986578 , 0.007986576
-0.140091926, -0.134807825, 9.807014    , -0.0005203196, 5.46406955E-06, 0.000208946833, 3.127179    , -0.0145821879, 7.258581E-05, 918.090149  , 31.7155685  , 824.0905    , 3.12        , 3           , 12          , 0.174645633 , 0
-0.138451219, -0.133106321, 9.794268    , -0.000482684758, -0.0007795286, -0.000168248691, 3.12717414  , -0.0145743676, 7.415587E-05, 918.1311    , 31.7159081  , 824.091431  , 3.13        , 3           , 13          , 0           , 0
-0.136523709, -0.142424554, 9.797903    , 4.127674E-05, -0.000178219459, 0.00073463  , 3.12717462  , -0.0145726912, 6.678403E-05, 918.1311    , 31.7159081  , 824.092346  , 3.14        , 3           , 14          , -0.0005771997, -0.000614722434
-0.132530421, -0.13024798 , 9.798754    , 0.0007344895, 0.000523018243, 0.000543516362, 3.127182    , -0.0145780006, 6.142439E-05, 918.1311    , 31.7159081  , 824.093262  , 3.15        , 3           , 15          , 0           , -1.88835747E-05
-0.138265222, -0.146502823, 9.79199     , -0.000205099059, -9.524112E-06, 0.000165253965, 3.12718     , -0.0145779289, 5.97705075E-05, 918.1311    , 31.7159081  , 824.0942    , 3.16        , 3           , 16          , 0           , 1.401298E-45
-0.134946182, -0.138723478, 9.797554    , -0.000279469765, -7.44697754E-05, -0.000235845349, 3.12717724  , -0.01457715 , 6.21181753E-05, 918.1311    , 31.7159081  , 824.0951    , 3.17        , 3           , 20          , 0           , 0
-0.136868685, -0.131249025, 9.795623    , 0.00010562496, 7.824821E-05, -0.000479169685, 3.12717819  , -0.0145778637, 6.69210349E-05, 918.1311    , 31.7159081  , 824.096     , 3.18        , 3           , 21          , 0           , 0
-0.143866464, -0.1400154  , 9.798095    , -0.0003692053, 1.88015983E-05, -0.000876895559, 3.12717438  , -0.0145779243, 7.569251E-05, 918.1311    , 31.7159081  , 824.0969    , 3.19        , 3           , 22          , 0           , 0
-0.145225614, -0.140237659, 9.79715     , 0.000249852223, 0.000307964045, -0.0002853167, 3.12717676  , -0.0145809622, 7.85900047E-05, 918.1311    , 31.7159081  , 824.097839  , 3.2         , 3           , 40          , 0           , 0
-0.143732578, -0.1367669  , 9.800182    , 0.000180092757, -0.000198555528, -0.0001222591, 3.12718463  , -0.0145724053, 7.969616E-05, 918.1311    , 31.7159081  , 824.063843  , 3.21        , 3           , 41          , 0           , 0
-0.136642933, -0.137342975, 9.80319     , 0.0004369501, 8.03875155E-05, 0.0005060173, 3.12718916  , -0.0145732807, 7.464768E-05, 918.1311    , 31.7159081  , 824.0646    , 3.22        , 3           , 42          , 0           , 0
-0.146936387, -0.136522546, 9.797515    , -0.0003116117, -0.0005609823, 0.0008828718, 3.127186    , -0.0145678008, 6.573836E-05, 918.126831  , 31.7162476  , 824.0653    , 3.23        , 3           , 255         , 0           , 0
-0.1388255  , -0.1324702  , 9.800884    , -3.25993751E-05, -0.000139400188, 7.302376E-05, 3.12718582  , -0.0145664178, 6.498805E-05, 918.126831  , 31.7162476  , 824.06604   , 3.24        , 3           , 255         , 0           , 0
-0.142259628, -0.135747492, 9.802187    , -0.000504037, 0.000486131321, 0.0009377835, 3.12718081  , -0.0145714125, 5.56804735E-05, 918.126831  , 31.7162476  , 824.0668    , 3.25        , 3           , 255         , 0           , 0
-0.137650341, -0.133961663, 9.79476452  , -0.000930678, 4.34447429E-05, 0.00047528735, 3.12717175  , -0.0145719163, 5.093397E-05, 918.126831  , 31.7162476  , 824.0675    , 3.26        , 3           , 255         , 0           , 0
-0.1373516  , -0.132327467, 9.795585    , -0.000246100128, -3.677822E-05, -4.49496E-05, 3.12716913  , -0.014571541, 5.137816E-05, 918.126831  , 31.7162476  , 824.068237  , 3.27        , 3           , 255         , 0           , 0
-0.140472934, -0.139742643, 9.802416    , -0.000396789517, 0.000487538055, 0.000152388442, 3.12716532  , -0.0145764379, 4.992463E-05, 918.126831  , 31.7162476  , 824.069     , 3.28        , 3           , 255         , 0           , 0
-0.149020791, -0.138452023, 9.803666    , 2.535159E-05, 0.000578006846, 0.000151409084, 3.12716556  , -0.01458224 , 4.849397E-05, 918.126831  , 31.7162476  , 824.0697    , 3.29        , 3           , 255         , 0           , 0
-0.1378749  , -0.1438986  , 9.799967    , 0.00052481395, 0.000281018642, -0.000474201282, 3.1271708   , -0.0145849818, 5.3276417E-05, 918.126831  , 31.7162476  , 824.070435  , 3.3         , 3           , 255         , 0           , 0
-0.141434044, -0.144544557, 9.796257    , 0.000203881878, 0.000231100741, -0.0003924895, 3.127179    , -0.0145848086, 5.714233E-05, 918.126831  , 31.7162476  , 824.046448  , 3.31        , 3           , 255         , 0           , 0
-0.137001872, -0.146867588, 9.80674     , -0.000186611782, 0.0003913986, -0.000129002452, 3.127177    , -0.0145887043, 5.848875E-05, 918.126831  , 31.7162476  , 824.047     , 3.32        , 3           , 255         , 0           , 0
-0.133989125, -0.1366866  , 9.801588    , 0.0006421704, 0.0003331346, -0.000508253463, 3.12718344  , -0.0145919612, 6.361919E-05, 918.097168  , 31.7153645  , 824.047546  , 3.33        , 3           , 255         , 0           , 0
-0.134007916, -0.141018242, 9.793218    , 0.0004922841, 0.000224995951, 0.000110796529, 3.12718844  , -0.0145942261, 6.254366E-05, 918.097168  , 31.7153645  , 824.0481    , 3.34        , 3           , 255         , 0           , 0
-0.140134454, -0.142182276, 9.796037    , 0.00029691722, 0.0001546864, 0.000163074 , 3.12719131  , -0.0145957954, 6.093523E-05, 918.097168  , 31.7153645  , 824.048645  , 3.35        , 3           , 255         , 0           , 0
-0.1419993  , -0.142768219, 9.808545    , 2.87259463E-05, -6.491912E-05, 0.000179007271, 3.12719178  , -0.0145951724, 5.91358476E-05, 918.097168  , 31.7153645  , 824.049255  , 3.36        , 3           , 255         , 0           , 0
-0.140357018, -0.1390774  , 9.804312    , 0.000424166821, 0.000172266038, 9.8532626E-05, 3.12719584  , -0.0145969093, 5.81753557E-05, 918.097168  , 31.7153645  , 824.049866  , 3.37        , 3           , 255         , 0           , 0
-0.13373962 , -0.140374616, 9.7966      , -6.07410329E-05, 0.000194102933, -0.0003201994, 3.12719536  , -0.0145988045, 6.140521E-05, 918.097168  , 31.7153645  , 824.0505    , 3.38        , 3           , 255         , 0           , 0
-0.142016843, -0.1378133  , 9.794768    , 6.77011E-05 , -0.0002459301, -0.00047352715, 3.12719584  , -0.0145962769, 6.610498E-05, 918.097168  , 31.7153645  , 824.0511    , 3.39        , 3           , 255         , 0           , 0
-0.148515731, -0.135075256, 9.798022    , -0.0004186072, 0.000284686685, 0.000295137143, 3.12719178  , -0.0145991659, 6.319465E-05, 918.097168  , 31.7153645  , 824.0517    , 3.4         , 3           , 255         , 0           , 0
-0.141071469, -0.135134563, 9.794176    , 4.06779E-05 , -0.000159687072, -0.0006959544, 3.12719274  , -0.0145921987, 7.012059E-05, 918.097168  , 31.7153645  , 824.0725    , 3.41        , 3           , 255         , 0           , 0
-0.1418781  , -0.137172848, 9.790848    , 0.000283911446, 0.000406206731, -0.0002887903, 3.1271956   , -0.0145962192, 7.306693E-05, 918.097168  , 31.7153645  , 824.073242  , 3.42        , 3           , 255         , 0           , 0
-0.13861163 , -0.13580659 , 9.796584    , -0.0004271196, 0.0005030545, -1.09459506E-05, 3.12719131  , -0.0146012483, 7.324882E-05, 918.137146  , 31.718214   , 824.074     , 3.43        , 3           , 255         , 0           , 0
-0.131507933, -0.127385765, 9.799315    , -0.000173541775, 0.000419550517, -6.39943E-05, 3.12718964  , -0.0146054355, 7.39491661E-05, 918.137146  , 31.718214   , 824.0747    , 3.44        , 3           , 255         , 0           , 0
-0.128584772, -0.130880386, 9.800675    , 0.000238752749, 0.000294979516, -0.000758472539, 3.12719178  , -0.0146082742, 8.157621E-05, 918.137146  , 31.718214   , 824.075439  , 3.45        , 3           , 255         , 0           , 0
-0.133640692, -0.1462883  , 9.797999    , 0.000495169137, 3.4447934E-05, -0.000185080848, 3.12719679  , -0.0146085918, 8.343194E-05, 918.137146  , 31.718214   , 824.0762    , 3.46        , 3           , 255         , 0           , 0
-0.136613533, -0.1380609  , 9.799919    , -3.555091E-06, -9.91884153E-05, 0.000410324137, 3.12719679  , -0.01460766 , 7.931452E-05, 918.137146  , 31.718214   , 824.0769    , 3.47        , 3           , 255         , 0           , 0
-0.136284754, -0.138650164, 9.797465    , -0.0003197391, 0.000310580857, -8.14869054E-05, 3.12719369  , -0.0146107525, 8.017408E-05, 918.137146  , 31.718214   , 824.077637  , 3.48        , 3           , 255         , 0           , 0
-0.134285   , -0.143937141, 9.793417    , -0.0005835833, 0.00061134214, 0.000138052041, 3.12718773  , -0.0146168843, 7.888163E-05, 918.137146  , 31.718214   , 824.078369  , 3.49        , 3           , 255         , 0           , 0
-0.131306112, -0.13329193 , 9.797221    , -9.330397E-05, 0.0002664986, 5.52572528E-05, 3.12718678  , -0.0146195572, 7.836746E-05, 918.137146  , 31.718214   , 824.0791    , 3.5         , 3           , 255         , 0           , 0
-0.136898592, -0.1394865  , 9.797149    , 0.000186461926, 0.0001380278, -0.0003503817, 3.12719584  , -0.0146083618, 8.17862747E-05, 918.137146  , 31.718214   , 824.038757  , 3.51        , 3           , 255         , 0           , 0
-0.140616089, -0.134083048, 9.798117    , -0.000267160067, -6.089057E-05, -4.728808E-05, 3.12719321  , -0.0146077462, 8.225037E-05, 918.137146  , 31.718214   , 824.039246  , 3.52        , 3           , 255         , 0           , 0
-0.134820253, -0.15064846 , 9.793794    , -5.80854248E-06, -0.000145178, 0.000189522092, 3.12719321  , -0.0146063231, 8.03342846E-05, 918.1497    , 31.7174683  , 824.039734  , 3.53        , 3           , 255         , 0           , 0
-0.14402163 , -0.146327347, 9.794384    , 0.0004856598, -0.000241026108, -6.93406837E-05, 3.127198    , -0.0146039054, 8.09929843E-05, 918.1497    , 31.7174683  , 824.0402    , 3.54        , 3           , 255         , 0           , 0
-0.149098828, -0.145493552, 9.793432    , 0.000718337367, -0.0003255948, -2.75010771E-05, 3.12720513  , -0.0146006458, 8.122114E-05, 918.1497    , 31.7174683  , 824.0407    , 3.55        , 3           , 255         , 0           , 0
-0.14248839 , -0.137120336, 9.792113    , 0.000552902231, 0.00049244205, 0.000205220189, 3.12721062  , -0.0146055985, 7.923982E-05, 918.1497    , 31.7174683  , 824.0412    , 3.56        , 3           , 255         , 0           , 0
-0.137909576, -0.137732044, 9.802042    , 0.000504319032, -5.06110955E-05, -0.0003157451, 3.12721562  , -0.0146050472, 8.23899245E-05, 918.1497    , 31.7174683  , 824.0417    , 3.57        , 3           , 255         , 0           , 0
-0.143603355, -0.137748212, 9.807184    , 0.000597660255, 3.14160134E-05, 0.0001608881, 3.12722158  , -0.0146053834, 8.078559E-05, 918.1497    , 31.7174683  , 824.0422    , 3.58        , 3           , 255         , 0           , 0
-0.142585367, -0.13562794 , 9.798268    , 1.52358552E-06, 0.000402442936, 0.0006525628, 3.12722182  , -0.0146095017, 7.431793E-05, 918.1497    , 31.7174683  , 824.042664  , 3.59        , 3           , 255         , 0           , 0
-0.135856435, -0.1403573  , 9.805021    , 0.000177460635, 9.08529037E-05, 0.000265047536, 3.12722373  , -0.0146104479, 7.168058E-05, 918.1497    , 31.7174683  , 824.043152  , 3.6         , 3           , 255         , 0           , 0
-0.136156633, -0.137270823, 9.804436    , 0.000429456879, 0.000489593542, -8.50995857E-05, 3.12722874  , -0.0146119334, 7.259015E-05, 918.1497    , 31.7174683  , 823.9899    , 3.61        , 3           , 255         , 0           , 0
-0.143966943, -0.142517358, 9.794615    , 0.000545399147, 0.000383636565, 0.0002326653, 3.12723422  , -0.014615804, 7.03186452E-05, 918.1497    , 31.7174683  , 823.9901    , 3.62        , 3           , 255         , 0           , 0
-0.1461984  , -0.137000173, 9.795189    , 0.0004406991, 0.0003407301, 0.00015193515, 3.12723851  , -0.0146192322, 6.884824E-05, 918.103638  , 31.7174683  , 823.9903    , 3.63        , 3           , 255         , 0           , 0
-0.144883022, -0.135322988, 9.793721    , -0.000261460664, 0.000336993573, 0.0009022627, 3.12723613  , -0.0146227339, 5.987418E-05, 918.103638  , 31.7174683  , 823.9905    , 3.64        , 3           , 255         , 0           , 0
-0.136750475, -0.1438337  , 9.796154    , 0.0003050915, 0.0004114359, 0.000180248753, 3.12723923  , -0.0146268709, 5.81307831E-05, 918.103638  , 31.7174683  , 823.990662  , 3.65        , 3           , 255         , 0           , 0
-0.132439882, -0.138811439, 9.796303    , -0.000417691655, 9.854679E-05, -0.00103606062, 3.127235    , -0.0146277091, 6.850532E-05, 918.103638  , 31.7174683  , 823.990845  , 3.66        , 3           , 255         , 0           , 0
-0.14453125 , -0.147375077, 9.806127    , -0.000230402278, 5.69012482E-05, -0.000352329022, 3.12723255  , -0.0146282259, 7.20367E-05 , 918.103638  , 31.7174683  , 823.991     , 3.67        , 3           , 255         , 0           , 0
-0.14306958 , -0.148965821, 9.803108    , 0.000520832953, 0.000180573115, -0.000240039953, 3.1272378   , -0.0146299964, 7.44629942E-05, 918.103638  , 31.7174683  , 823.9912    , 3.68        , 3           , 255         , 0           , 0
-0.135093629, -0.141381741, 9.79760551  , -0.000229434168, 9.282655E-05, 0.000275452185, 3.12723541  , -0.014630965, 7.172184E-05, 918.103638  , 31.7174683  , 823.9914    , 3.69        , 3           , 255         , 0           , 0
-0.145967245, -0.145349622, 9.7970295   , -0.0004715796, 0.0003140061, 0.0004673817, 3.127231    , -0.0146341706, 6.709321E-05, 918.103638  , 31.7174683  , 823.9916    , 3.7         , 3           , 255         , 0           , 0
-0.156719491, -0.142323583, 9.79412651  , 0.0001149945, 0.000677317963, 0.0005349501, 3.12723041  , -0.0146375485, 6.18645645E-05, 918.103638  , 31.7174683  , 824.011658  , 3.71        , 3           , 255         , 0           , 0
-0.145029128, -0.143776938, 9.80084     , 5.3940108E-05, -0.000404478342, 7.91601E-05 , 3.127231    , -0.0146335158, 6.10148927E-05, 918.103638  , 31.7174683  , 824.011963  , 3.72        , 3           , 255         , 0           , 0
